pos,corr_resp,thisN,thisTrialN,thisRepN,kev_resp.kevs,kev_resp.corr,kev_resp.rt,kev_resp.duration,trials.thisRepN,trials.thisTrialN,trials.thisN,trials.thisIndex,trials_2.thisRepN,trials_2.thisTrialN,trials_2.thisN,trials_2.thisIndex,thisRow.t,notes,trial.started,Fixation.started,line1.started,line2.started,line3.started,line4.started,Fixation.stopped,probe.started,kev_resp.started,trial.stopped,trials.kev_resp.kevs,trials.kev_resp.corr,trials.kev_resp.rt,trials.kev_resp.duration,trials_2.kev_resp.kevs,trials_2.kev_resp.corr,trials_2.kev_resp.rt,trials_2.kev_resp.duration,participant,session,date,expName,expVersion,psvchopvVersion,frameRate,expStart
-50,x,0,0,0,v,0,1.7312508,None,0,0,0,0,,,,,0.0273748,,0.0176588,0.0273748,1.0107283,1.0107283,1.0107283,1.0107283,1.0272545,2.0103732,2.0103732,3.7530797,v,0,1.7312508,None,,,,,1,1,2025-10-02_19h29.32.885,Motor Sequence,,2025.1.1,59.93770076,2025-10-02 19h30.31.288865 +0530
150,v,1,1,0,z,0,1.6000552,None,0,1,1,1,,,,,3.7610796,,3.7533006,3.7610796,4.7625104,4.7625104,4.7625104,4.7625104,4.7625104,5.7613075,5.7613075,7.3645898,z,0,1.6000552,None,,,,,1,1,2025-10-02_19h29.32.885,Motor Sequence,,2025.1.1,59.93770076,2025-10-02 19h30.31.288865 +0530
50,c,2,2,0,c,1,1.8169393,None,0,2,2,2,,,,,7.3782867,,7.3648211,7.3782867,8.3782901,8.3782901,8.3782901,8.3782901,8.3782901,9.3783932,9.3783932,11.2001572,c,1,1.8169393,None,,,,,1,1,2025-10-02_19h29.32.885,Motor Sequence,,2025.1.1,59.93770076,2025-10-02 19h30.31.288865 +0530
-150,z,3,3,0,x,0,2.0342059,None,0,3,3,3,,,,,11.2109532,,11.2003988,11.2109532,12.2119885,12.2119885,12.2119885,12.2119885,12.2119885,13.2131353,13.2131353,15.2491977,x,0,2.0342059,None,,,,,1,1,2025-10-02_19h29.32.885,Motor Sequence,,2025.1.1,59.93770076,2025-10-02 19h30.31.288865 +0530
-50,x,4,0,1,v,0,126.2321856,None,1,0,4,0,,,,,15.2628012,,15.2494894,15.2628012,16.2610976,16.2610976,16.2610976,16.2610976,16.2610976,17.2617407,17.2617407,143.510058,v,0,126.2321856,None,,,,,1,1,2025-10-02_19h29.32.885,Motor Sequence,,2025.1.1,59.93770076,2025-10-02 19h30.31.288865 +0530
150,v,5,1,1,z,0,1.3681394,None,1,1,5,1,,,,,143.5255088,,143.5102362,143.5255088,144.5103166,144.5103166,144.5103166,144.5103166,144.526338,145.5086634,145.5086634,146.8941187,z,0,1.3681394,None,,,,,1,1,2025-10-02_19h29.32.885,Motor Sequence,,2025.1.1,59.93770076,2025-10-02 19h30.31.288865 +0530
50,c,6,2,1,v,0,27.5011511,None,1,2,6,2,,,,,146.9095035,,146.8943495,146.9095035,147.9086689,147.9086689,147.9086689,147.9086689,147.9086689,148.8930411,148.8930411,176.3959913,v,0,27.5011511,None,,,,,1,1,2025-10-02_19h29.32.885,Motor Sequence,,2025.1.1,59.93770076,2025-10-02 19h30.31.288865 +0530
-150,z,7,3,1,c,0,0.0440086,None,1,3,7,3,,,,,176.4103399,,176.3962555,176.4103399,177.4096529,177.4096529,177.4096529,177.4096529,177.4096529,178.4098192,178.4098192,178.4630272,c,0,0.0440086,None,,,,,1,1,2025-10-02_19h29.32.885,Motor Sequence,,2025.1.1,59.93770076,2025-10-02 19h30.31.288865 +0530
-50,x,8,0,2,c,0,0.3801306,None,2,0,8,0,,,,,178.4764965,,178.4632778,178.4764965,179.4770001,179.4770001,179.4770001,179.4770001,179.4770001,180.4766527,180.4766527,180.8629896,c,0,0.3801306,None,,,,,1,1,2025-10-02_19h29.32.885,Motor Sequence,,2025.1.1,59.93770076,2025-10-02 19h30.31.288865 +0530
150,v,9,1,2,z,0,0.2899065,None,2,1,9,1,,,,,180.8769554,,180.8632142,180.8769554,181.8760197,181.8760197,181.8760197,181.8760197,181.8760197,182.8761545,182.8761545,183.1786874,z,0,0.2899065,None,,,,,1,1,2025-10-02_19h29.32.885,Motor Sequence,,2025.1.1,59.93770076,2025-10-02 19h30.31.288865 +0530
50,c,10,2,2,c,1,1.6396245,None,2,2,10,2,,,,,183.192793,,183.178911,183.192793,184.1929601,184.1929601,184.1929601,184.1929601,184.1929601,185.1923803,185.1923803,186.8448335,c,1,1.6396245,None,,,,,1,1,2025-10-02_19h29.32.885,Motor Sequence,,2025.1.1,59.93770076,2025-10-02 19h30.31.288865 +0530
-150,z,11,3,2,x,0,0.9168137,None,2,3,11,3,,,,,186.8593878,,186.8450375,186.8593878,187.8591574,187.8591574,187.8591574,187.8591574,187.8591574,188.859581,188.859581,189.7796993,x,0,0.9168137,None,,,,,1,1,2025-10-02_19h29.32.885,Motor Sequence,,2025.1.1,59.93770076,2025-10-02 19h30.31.288865 +0530
-50,x,12,0,3,v,0,0.6132313,None,3,0,12,0,,,,,189.7927079,,189.7799146,189.7927079,190.7926546,190.7926546,190.7926546,190.7926546,190.7926546,191.7922773,191.7922773,192.4139351,v,0,0.6132313,None,,,,,1,1,2025-10-02_19h29.32.885,Motor Sequence,,2025.1.1,59.93770076,2025-10-02 19h30.31.288865 +0530
150,v,13,1,3,z,0,1.2619558,None,3,1,13,1,,,,,192.4259037,,192.4141766,192.4259037,193.4261548,193.4261548,193.4261548,193.4261548,193.4261548,194.4268077,194.4268077,195.6948953,z,0,1.2619558,None,,,,,1,1,2025-10-02_19h29.32.885,Motor Sequence,,2025.1.1,59.93770076,2025-10-02 19h30.31.288865 +0530
50,c,14,2,3,c,1,2.1587235,None,3,2,14,2,,,,,195.7097545,,195.6951234,195.7097545,196.7094289,196.7094289,196.7094289,196.7094289,196.7094289,197.6924015,197.6924015,199.8623865,c,1,2.1587235,None,,,,,1,1,2025-10-02_19h29.32.885,Motor Sequence,,2025.1.1,59.93770076,2025-10-02 19h30.31.288865 +0530
-150,z,15,3,3,x,0,1.3986556,None,3,3,15,3,,,,,199.8768046,,199.8626846,199.8768046,200.8762861,200.8762861,200.8762861,200.8762861,200.8762861,201.8762742,201.8762742,203.2801896,x,0,1.3986556,None,,,,,1,1,2025-10-02_19h29.32.885,Motor Sequence,,2025.1.1,59.93770076,2025-10-02 19h30.31.288865 +0530
-50,x,16,0,4,v,0,1.2101525,None,4,0,16,0,,,,,203.2926599,,203.2804478,203.2926599,204.2918363,204.2918363,204.2918363,204.2918363,204.2918363,205.2917924,205.2917924,206.512726,v,0,1.2101525,None,,,,,1,1,2025-10-02_19h29.32.885,Motor Sequence,,2025.1.1,59.93770076,2025-10-02 19h30.31.288865 +0530
150,v,17,1,4,c,0,1.6813004,None,4,1,17,1,,,,,206.5262124,,206.5129824,206.5262124,207.5253723,207.5253723,207.5253723,207.5253723,207.5253723,208.526243,208.526243,210.2102889,c,0,1.6813004,None,,,,,1,1,2025-10-02_19h29.32.885,Motor Sequence,,2025.1.1,59.93770076,2025-10-02 19h30.31.288865 +0530
50,c,18,2,4,c,1,48.4661385,None,4,2,18,2,,,,,210.2253809,,210.2104578,210.2253809,211.2259611,211.2259611,211.2259611,211.2259611,211.2259611,212.2251773,212.2251773,260.6955767,c,1,48.4661385,None,,,,,1,1,2025-10-02_19h29.32.885,Motor Sequence,,2025.1.1,59.93770076,2025-10-02 19h30.31.288865 +0530
-150,z,19,3,4,x,0,1.0811001,None,4,3,19,3,,,,,260.7083706,,260.695885,260.7083706,261.7082202,261.7082202,261.7082202,261.7082202,261.7082202,262.707593,262.707593,263.7953503,x,0,1.0811001,None,,,,,1,1,2025-10-02_19h29.32.885,Motor Sequence,,2025.1.1,59.93770076,2025-10-02 19h30.31.288865 +0530
-50,x,20,0,5,v,0,1.0788012,None,5,0,20,0,,,,,263.8079822,,263.7956087,263.8079822,264.8078958,264.8078958,264.8078958,264.8078958,264.8078958,265.8090791,265.8090791,266.8947924,v,0,1.0788012,None,,,,,1,1,2025-10-02_19h29.32.885,Motor Sequence,,2025.1.1,59.93770076,2025-10-02 19h30.31.288865 +0530
150,v,21,1,5,z,0,1.9534307,None,5,1,21,1,,,,,266.9086323,,266.8950724,266.9086323,267.908536,267.908536,267.908536,267.908536,267.908536,268.9081766,268.9081766,270.8780468,z,0,1.9534307,None,,,,,1,1,2025-10-02_19h29.32.885,Motor Sequence,,2025.1.1,59.93770076,2025-10-02 19h30.31.288865 +0530
50,c,22,2,5,c,1,2.048878,None,5,2,22,2,,,,,270.8922952,,270.8783656,270.8922952,271.891452,271.891452,271.891452,271.891452,271.891452,272.8912676,272.8912676,274.9451089,c,1,2.048878,None,,,,,1,1,2025-10-02_19h29.32.885,Motor Sequence,,2025.1.1,59.93770076,2025-10-02 19h30.31.288865 +0530
-150,z,23,3,5,x,0,1.1641251,None,5,3,23,3,,,,,274.9583811,,274.9454313,274.9583811,275.9575062,275.9575062,275.9575062,275.9575062,275.9747168,276.9576599,276.9576599,278.1271883,x,0,1.1641251,None,,,,,1,1,2025-10-02_19h29.32.885,Motor Sequence,,2025.1.1,59.93770076,2025-10-02 19h30.31.288865 +0530
-50,x,24,0,6,v,0,0.9668727,None,6,0,24,0,,,,,278.1412445,,278.1273992,278.1412445,279.1415892,279.1415892,279.1415892,279.1415892,279.1415892,280.1407366,280.1407366,281.1114376,v,0,0.9668727,None,,,,,1,1,2025-10-02_19h29.32.885,Motor Sequence,,2025.1.1,59.93770076,2025-10-02 19h30.31.288865 +0530
150,v,25,1,6,z,0,1.7640194,None,6,1,25,1,,,,,281.125882,,281.1118426,281.125882,282.1246749,282.1246749,282.1246749,282.1246749,282.1246749,283.1247894,283.1247894,284.8946516,z,0,1.7640194,None,,,,,1,1,2025-10-02_19h29.32.885,Motor Sequence,,2025.1.1,59.93770076,2025-10-02 19h30.31.288865 +0530
50,c,26,2,6,c,1,1.7071298,None,6,2,26,2,,,,,284.9076938,,284.8948848,284.9076938,285.9080372,285.9080372,285.9080372,285.9080372,285.9080372,286.9080729,286.9080729,288.6279006,c,1,1.7071298,None,,,,,1,1,2025-10-02_19h29.32.885,Motor Sequence,,2025.1.1,59.93770076,2025-10-02 19h30.31.288865 +0530
-150,z,27,3,6,x,0,0.9208079,None,6,3,27,3,,,,,288.642012,,288.6282694,288.642012,289.640621,289.640621,289.640621,289.640621,289.640621,290.6409973,290.6409973,291.5768897,x,0,0.9208079,None,,,,,1,1,2025-10-02_19h29.32.885,Motor Sequence,,2025.1.1,59.93770076,2025-10-02 19h30.31.288865 +0530
-50,x,28,0,7,v,0,0.9093462,None,7,0,28,0,,,,,291.5915972,,291.5771075,291.5915972,292.5914053,292.5914053,292.5914053,292.5914053,292.5914053,293.5914877,293.5914877,294.5103684,v,0,0.9093462,None,,,,,1,1,2025-10-02_19h29.32.885,Motor Sequence,,2025.1.1,59.93770076,2025-10-02 19h30.31.288865 +0530
150,v,29,1,7,z,0,1.4688196,None,7,1,29,1,,,,,294.525123,,294.5106046,294.525123,295.5253563,295.5253563,295.5253563,295.5253563,295.5253563,296.5251953,296.5251953,297.9955232,z,0,1.4688196,None,,,,,1,1,2025-10-02_19h29.32.885,Motor Sequence,,2025.1.1,59.93770076,2025-10-02 19h30.31.288865 +0530
50,c,30,2,7,c,1,2.0964991,None,7,2,30,2,,,,,298.0080691,,297.9957637,298.0080691,299.0078918,299.0078918,299.0078918,299.0078918,299.0078918,300.007714,300.007714,302.1103697,c,1,2.0964991,None,,,,,1,1,2025-10-02_19h29.32.885,Motor Sequence,,2025.1.1,59.93770076,2025-10-02 19h30.31.288865 +0530
-150,z,31,3,7,x,0,0.9895301,None,7,3,31,3,,,,,302.1245703,,302.1106248,302.1245703,303.1244101,303.1244101,303.1244101,303.1244101,303.1244101,304.1245726,304.1245726,305.125997,x,0,0.9895301,None,,,,,1,1,2025-10-02_19h29.32.885,Motor Sequence,,2025.1.1,59.93770076,2025-10-02 19h30.31.288865 +0530
-50,x,32,0,8,v,0,1.0025937,None,8,0,32,0,,,,,305.1407614,,305.1261873,305.1407614,306.1243382,306.1243382,306.1243382,306.1243382,306.1406043,307.14186,307.14186,308.1615633,v,0,1.0025937,None,,,,,1,1,2025-10-02_19h29.32.885,Motor Sequence,,2025.1.1,59.93770076,2025-10-02 19h30.31.288865 +0530
150,v,33,1,8,z,0,0.9307846,None,8,1,33,1,,,,,308.1742224,,308.1618576,308.1742224,309.1744406,309.1744406,309.1744406,309.1744406,309.1744406,310.1740777,310.1740777,311.1120843,z,0,0.9307846,None,,,,,1,1,2025-10-02_19h29.32.885,Motor Sequence,,2025.1.1,59.93770076,2025-10-02 19h30.31.288865 +0530
50,c,34,2,8,c,1,1.5930672,None,8,2,34,2,,,,,311.124284,,311.11234,311.124284,312.1245491,312.1245491,312.1245491,312.1245491,312.1245491,313.1240108,313.1240108,314.7271439,c,1,1.5930672,None,,,,,1,1,2025-10-02_19h29.32.885,Motor Sequence,,2025.1.1,59.93770076,2025-10-02 19h30.31.288865 +0530
-150,z,35,3,8,x,0,0.7731052,None,8,3,35,3,,,,,314.7421625,,314.7275763,314.7421625,315.7411453,315.7411453,315.7411453,315.7411453,315.7573002,316.7408658,316.7408658,317.5274223,x,0,0.7731052,None,,,,,1,1,2025-10-02_19h29.32.885,Motor Sequence,,2025.1.1,59.93770076,2025-10-02 19h30.31.288865 +0530
-50,x,36,0,9,v,0,1.0485397,None,9,0,36,0,,,,,317.5411,,317.5276847,317.5411,318.541005,318.541005,318.541005,318.541005,318.541005,319.5411448,319.5411448,320.5945964,v,0,1.0485397,None,,,,,1,1,2025-10-02_19h29.32.885,Motor Sequence,,2025.1.1,59.93770076,2025-10-02 19h30.31.288865 +0530
150,v,37,1,9,z,0,1.2346031,None,9,1,37,1,,,,,320.6077134,,320.5948379,320.6077134,321.6074093,321.6074093,321.6074093,321.6074093,321.6074093,322.6083635,322.6083635,323.8435367,z,0,1.2346031,None,,,,,1,1,2025-10-02_19h29.32.885,Motor Sequence,,2025.1.1,59.93770076,2025-10-02 19h30.31.288865 +0530
50,c,38,2,9,c,1,3.4076023,None,9,2,38,2,,,,,323.8581406,,323.8437783,323.8581406,324.8570791,324.8570791,324.8570791,324.8570791,324.8570791,325.8573363,325.8573363,329.276649,c,1,3.4076023,None,,,,,1,1,2025-10-02_19h29.32.885,Motor Sequence,,2025.1.1,59.93770076,2025-10-02 19h30.31.288865 +0530
-150,z,39,3,9,x,0,0.6700359,None,9,3,39,3,,,,,329.2912858,,329.2768867,329.2912858,330.2930188,330.2930188,330.2930188,330.2930188,330.2930188,331.2908243,331.2908243,331.9618953,x,0,0.6700359,None,,,,,1,1,2025-10-02_19h29.32.885,Motor Sequence,,2025.1.1,59.93770076,2025-10-02 19h30.31.288865 +0530
-50,x,40,0,10,v,0,0.3734049,None,10,0,40,0,,,,,331.9749224,,331.962168,331.9749224,332.9735618,332.9735618,332.9735618,332.9735618,332.9735618,333.9748382,333.9748382,334.3593471,v,0,0.3734049,None,,,,,1,1,2025-10-02_19h29.32.885,Motor Sequence,,2025.1.1,59.93770076,2025-10-02 19h30.31.288865 +0530
150,v,41,1,10,z,0,0.957723,None,10,1,41,1,,,,,334.3743402,,334.3595586,334.3743402,335.3738661,335.3738661,335.3738661,335.3738661,335.3738661,336.3739855,336.3739855,337.3415969,z,0,0.957723,None,,,,,1,1,2025-10-02_19h29.32.885,Motor Sequence,,2025.1.1,59.93770076,2025-10-02 19h30.31.288865 +0530
50,c,42,2,10,c,1,0.2598192,None,10,2,42,2,,,,,337.3567848,,337.341828,337.3567848,338.3410052,338.3410052,338.3410052,338.3410052,338.3584226,339.3572262,339.3572262,339.6262535,c,1,0.2598192,None,,,,,1,1,2025-10-02_19h29.32.885,Motor Sequence,,2025.1.1,59.93770076,2025-10-02 19h30.31.288865 +0530
-150,z,43,3,10,x,0,1.7073763,None,10,3,43,3,,,,,339.6417951,,339.6265385,339.6417951,340.6401921,340.6401921,340.6401921,340.6401921,340.6401921,341.6401337,341.6401337,343.3597049,x,0,1.7073763,None,,,,,1,1,2025-10-02_19h29.32.885,Motor Sequence,,2025.1.1,59.93770076,2025-10-02 19h30.31.288865 +0530
-50,x,44,0,11,v,0,0.2747824,None,11,0,44,0,,,,,343.374235,,343.3599187,343.374235,344.3734661,344.3734661,344.3734661,344.3734661,344.3734661,345.3742882,345.3742882,345.6605893,v,0,0.2747824,None,,,,,1,1,2025-10-02_19h29.32.885,Motor Sequence,,2025.1.1,59.93770076,2025-10-02 19h30.31.288865 +0530
150,v,45,1,11,z,0,0.0525853,None,11,1,45,1,,,,,345.6745613,,345.6608908,345.6745613,346.6736217,346.6736217,346.6736217,346.6736217,346.6736217,347.673912,347.673912,347.7276837,z,0,0.0525853,None,,,,,1,1,2025-10-02_19h29.32.885,Motor Sequence,,2025.1.1,59.93770076,2025-10-02 19h30.31.288865 +0530
50,c,46,2,11,c,1,0.7493549,None,11,2,46,2,,,,,347.7408848,,347.7279267,347.7408848,348.7404348,348.7404348,348.7404348,348.7404348,348.7404348,349.7408894,349.7408894,350.4916855,c,1,0.7493549,None,,,,,1,1,2025-10-02_19h29.32.885,Motor Sequence,,2025.1.1,59.93770076,2025-10-02 19h30.31.288865 +0530
-150,z,47,3,11,x,0,0.2876185,None,11,3,47,3,,,,,350.506464,,350.4918324,350.506464,351.5064991,351.5064991,351.5064991,351.5064991,351.5064991,352.5068278,352.5068278,352.8073765,x,0,0.2876185,None,,,,,1,1,2025-10-02_19h29.32.885,Motor Sequence,,2025.1.1,59.93770076,2025-10-02 19h30.31.288865 +0530
-50,x,48,0,12,v,0,0.2666273,None,12,0,48,0,,,,,352.8230297,,352.8075291,352.8230297,353.8073265,353.8073265,353.8073265,353.8073265,353.823477,354.8073307,354.8073307,355.0766099,v,0,0.2666273,None,,,,,1,1,2025-10-02_19h29.32.885,Motor Sequence,,2025.1.1,59.93770076,2025-10-02 19h30.31.288865 +0530
150,v,49,1,12,z,0,1.763292,None,12,1,49,1,,,,,355.0908169,,355.0768071,355.0908169,356.0904097,356.0904097,356.0904097,356.0904097,356.0904097,357.0909388,357.0909388,358.8607652,z,0,1.763292,None,,,,,1,1,2025-10-02_19h29.32.885,Motor Sequence,,2025.1.1,59.93770076,2025-10-02 19h30.31.288865 +0530
50,c,50,2,12,c,1,0.4209781,None,12,2,50,2,,,,,358.8738174,,358.8610089,358.8738174,359.8737461,359.8737461,359.8737461,359.8737461,359.8737461,360.8735441,360.8735441,361.3090476,c,1,0.4209781,None,,,,,1,1,2025-10-02_19h29.32.885,Motor Sequence,,2025.1.1,59.93770076,2025-10-02 19h30.31.288865 +0530
-150,z,51,3,12,x,0,0.3914011,None,12,3,51,3,,,,,361.3235844,,361.3092512,361.3235844,362.323596,362.323596,362.323596,362.323596,362.323596,363.32372,363.32372,363.7252967,x,0,0.3914011,None,,,,,1,1,2025-10-02_19h29.32.885,Motor Sequence,,2025.1.1,59.93770076,2025-10-02 19h30.31.288865 +0530
-50,x,52,0,13,v,0,0.2692157,None,13,0,52,0,,,,,363.7402152,,363.7254828,363.7402152,364.7245413,364.7245413,364.7245413,364.7245413,364.7401189,365.7401293,365.7401293,366.010874,v,0,0.2692157,None,,,,,1,1,2025-10-02_19h29.32.885,Motor Sequence,,2025.1.1,59.93770076,2025-10-02 19h30.31.288865 +0530
150,v,53,1,13,z,0,0.3909333,None,13,1,53,1,,,,,366.0248288,,366.0111362,366.0248288,367.0234579,367.0234579,367.0234579,367.0234579,367.0234579,368.0239499,368.0239499,368.4264802,z,0,0.3909333,None,,,,,1,1,2025-10-02_19h29.32.885,Motor Sequence,,2025.1.1,59.93770076,2025-10-02 19h30.31.288865 +0530
50,c,54,2,13,c,1,0.5058356,None,13,2,54,2,,,,,368.4407292,,368.4267246,368.4407292,369.440448,369.440448,369.440448,369.440448,369.440448,370.4403127,370.4403127,370.9600796,c,1,0.5058356,None,,,,,1,1,2025-10-02_19h29.32.885,Motor Sequence,,2025.1.1,59.93770076,2025-10-02 19h30.31.288865 +0530
-150,z,55,3,13,x,0,0.2639014,None,13,3,55,3,,,,,370.973684,,370.9603382,370.973684,371.9739854,371.9739854,371.9739854,371.9739854,371.9739854,372.9738332,372.9738332,373.2441316,x,0,0.2639014,None,,,,,1,1,2025-10-02_19h29.32.885,Motor Sequence,,2025.1.1,59.93770076,2025-10-02 19h30.31.288865 +0530
-50,x,56,0,14,v,0,0.3031721,None,14,0,56,0,,,,,373.2574511,,373.2443428,373.2574511,374.256906,374.256906,374.256906,374.256906,374.256906,375.2569018,375.2569018,375.5759574,v,0,0.3031721,None,,,,,1,1,2025-10-02_19h29.32.885,Motor Sequence,,2025.1.1,59.93770076,2025-10-02 19h30.31.288865 +0530
150,v,57,1,14,c,0,0.5118645,None,14,1,57,1,,,,,375.5905577,,375.576215,375.5905577,376.5902886,376.5902886,376.5902886,376.5902886,376.5902886,377.5901548,377.5901548,378.1089929,c,0,0.5118645,None,,,,,1,1,2025-10-02_19h29.32.885,Motor Sequence,,2025.1.1,59.93770076,2025-10-02 19h30.31.288865 +0530
50,c,58,2,14,z,0,0.2240873,None,14,2,58,2,,,,,378.1237755,,378.109263,378.1237755,379.123587,379.123587,379.123587,379.123587,379.123587,380.1238842,380.1238842,380.3592606,z,0,0.2240873,None,,,,,1,1,2025-10-02_19h29.32.885,Motor Sequence,,2025.1.1,59.93770076,2025-10-02 19h30.31.288865 +0530
-150,z,59,3,14,x,0,0.2576374,None,14,3,59,3,,,,,380.3735559,,380.3594889,380.3735559,381.3740165,381.3740165,381.3740165,381.3740165,381.3740165,382.3736227,382.3736227,382.6421434,x,0,0.2576374,None,,,,,1,1,2025-10-02_19h29.32.885,Motor Sequence,,2025.1.1,59.93770076,2025-10-02 19h30.31.288865 +0530
-50,x,60,0,15,v,0,0.293933,None,15,0,60,0,,,,,382.6570781,,382.6423539,382.6570781,383.6407573,383.6407573,383.6407573,383.6407573,383.6573023,384.6570134,384.6570134,384.9591214,v,0,0.293933,None,,,,,1,1,2025-10-02_19h29.32.885,Motor Sequence,,2025.1.1,59.93770076,2025-10-02 19h30.31.288865 +0530
150,v,61,1,15,c,0,0.4482026,None,15,1,61,1,,,,,384.9737941,,384.9593233,384.9737941,385.9734621,385.9734621,385.9734621,385.9734621,385.9734621,386.9736439,386.9736439,387.4275257,c,0,0.4482026,None,,,,,1,1,2025-10-02_19h29.32.885,Motor Sequence,,2025.1.1,59.93770076,2025-10-02 19h30.31.288865 +0530
50,c,62,2,15,z,0,1.0059825,None,15,2,62,2,,,,,387.44036,,387.4278791,387.44036,388.4401312,388.4401312,388.4401312,388.4401312,388.4401312,389.4401891,389.4401891,390.4593899,z,0,1.0059825,None,,,,,1,1,2025-10-02_19h29.32.885,Motor Sequence,,2025.1.1,59.93770076,2025-10-02 19h30.31.288865 +0530
-150,z,63,3,15,x,0,0.5119963,None,15,3,63,3,,,,,390.473597,,390.4596009,390.473597,391.473001,391.473001,391.473001,391.473001,391.473001,392.4731418,392.4731418,392.9927907,x,0,0.5119963,None,,,,,1,1,2025-10-02_19h29.32.885,Motor Sequence,,2025.1.1,59.93770076,2025-10-02 19h30.31.288865 +0530
-50,x,64,0,16,v,0,0.5022414,None,16,0,64,0,,,,,393.0073293,,392.9930794,393.0073293,394.0068427,394.0068427,394.0068427,394.0068427,394.0068427,395.0069253,395.0069253,395.526057,v,0,0.5022414,None,,,,,1,1,2025-10-02_19h29.32.885,Motor Sequence,,2025.1.1,59.93770076,2025-10-02 19h30.31.288865 +0530
150,v,65,1,16,z,0,0.4172908,None,16,1,65,1,,,,,395.540587,,395.5262885,395.540587,396.5402416,396.5402416,396.5402416,396.5402416,396.5402416,397.5403721,397.5403721,397.9607633,z,0,0.4172908,None,,,,,1,1,2025-10-02_19h29.32.885,Motor Sequence,,2025.1.1,59.93770076,2025-10-02 19h30.31.288865 +0530
50,c,66,2,16,c,1,0.2780181,None,16,2,66,2,,,,,397.9738146,,397.9610688,397.9738146,398.9732512,398.9732512,398.9732512,398.9732512,398.9732512,399.9732862,399.9732862,400.2596683,c,1,0.2780181,None,,,,,1,1,2025-10-02_19h29.32.885,Motor Sequence,,2025.1.1,59.93770076,2025-10-02 19h30.31.288865 +0530
-150,z,67,3,16,x,0,0.3640292,None,16,3,67,3,,,,,400.2735679,,400.2599305,400.2735679,401.2743177,401.2743177,401.2743177,401.2743177,401.2743177,402.2737452,402.2737452,402.6431881,x,0,0.3640292,None,,,,,1,1,2025-10-02_19h29.32.885,Motor Sequence,,2025.1.1,59.93770076,2025-10-02 19h30.31.288865 +0530
-50,x,68,0,17,v,0,0.6834498,None,17,0,68,0,,,,,402.6566958,,402.6434125,402.6566958,403.6570229,403.6570229,403.6570229,403.6570229,403.6570229,404.6567476,404.6567476,405.34218,v,0,0.6834498,None,,,,,1,1,2025-10-02_19h29.32.885,Motor Sequence,,2025.1.1,59.93770076,2025-10-02 19h30.31.288865 +0530
150,v,69,1,17,z,0,0.364615,None,17,1,69,1,,,,,405.3572526,,405.3424064,405.3572526,406.340867,406.340867,406.340867,406.340867,406.3567089,407.3561828,407.3561828,407.726127,z,0,0.364615,None,,,,,1,1,2025-10-02_19h29.32.885,Motor Sequence,,2025.1.1,59.93770076,2025-10-02 19h30.31.288865 +0530
50,c,70,2,17,c,1,0.320564,None,17,2,70,2,,,,,407.7402606,,407.7263646,407.7402606,408.7401704,408.7401704,408.7401704,408.7401704,408.7401704,409.739845,409.739845,410.0764471,c,1,0.320564,None,,,,,1,1,2025-10-02_19h29.32.885,Motor Sequence,,2025.1.1,59.93770076,2025-10-02 19h30.31.288865 +0530
-150,z,71,3,17,x,0,0.2838542,None,17,3,71,3,,,,,410.0906204,,410.0767175,410.0906204,411.0904775,411.0904775,411.0904775,411.0904775,411.0904775,412.0904796,412.0904796,412.3772619,x,0,0.2838542,None,,,,,1,1,2025-10-02_19h29.32.885,Motor Sequence,,2025.1.1,59.93770076,2025-10-02 19h30.31.288865 +0530
-50,x,72,0,18,v,0,0.3240826,None,18,0,72,0,,,,,412.3909307,,412.3775752,412.3909307,413.3900172,413.3900172,413.3900172,413.3900172,413.3900172,414.3899505,414.3899505,414.7255209,v,0,0.3240826,None,,,,,1,1,2025-10-02_19h29.32.885,Motor Sequence,,2025.1.1,59.93770076,2025-10-02 19h30.31.288865 +0530
150,v,73,1,18,z,0,0.4040374,None,18,1,73,1,,,,,414.7400238,,414.7257464,414.7400238,415.7397465,415.7397465,415.7397465,415.7397465,415.7397465,416.7406385,416.7406385,417.1586394,z,0,0.4040374,None,,,,,1,1,2025-10-02_19h29.32.885,Motor Sequence,,2025.1.1,59.93770076,2025-10-02 19h30.31.288865 +0530
50,c,74,2,18,c,1,0.456907,None,18,2,74,2,,,,,417.173491,,417.1588505,417.173491,418.173144,418.173144,418.173144,418.173144,418.173144,419.1727821,419.1727821,419.6426978,c,1,0.456907,None,,,,,1,1,2025-10-02_19h29.32.885,Motor Sequence,,2025.1.1,59.93770076,2025-10-02 19h30.31.288865 +0530
-150,z,75,3,18,x,0,0.3174086,None,18,3,75,3,,,,,419.6564569,,419.6429394,419.6564569,420.65763,420.65763,420.65763,420.65763,420.65763,421.6570896,421.6570896,421.9771632,x,0,0.3174086,None,,,,,1,1,2025-10-02_19h29.32.885,Motor Sequence,,2025.1.1,59.93770076,2025-10-02 19h30.31.288865 +0530
-50,x,76,0,19,v,0,0.2180799,None,19,0,76,0,,,,,421.9907708,,421.9775056,421.9907708,422.9896718,422.9896718,422.9896718,422.9896718,422.9896718,423.9906106,423.9906106,424.2101783,v,0,0.2180799,None,,,,,1,1,2025-10-02_19h29.32.885,Motor Sequence,,2025.1.1,59.93770076,2025-10-02 19h30.31.288865 +0530
150,v,77,1,19,z,0,0.3833372,None,19,1,77,1,,,,,424.2233478,,424.2104753,424.2233478,425.2226839,425.2226839,425.2226839,425.2226839,425.2226839,426.221967,426.221967,426.6109035,z,0,0.3833372,None,,,,,1,1,2025-10-02_19h29.32.885,Motor Sequence,,2025.1.1,59.93770076,2025-10-02 19h30.31.288865 +0530
50,c,78,2,19,c,1,0.4976423,None,19,2,78,2,,,,,426.6233107,,426.6112011,426.6233107,427.6231542,427.6231542,427.6231542,427.6231542,427.6231542,428.623698,428.623698,429.1271015,c,1,0.4976423,None,,,,,1,1,2025-10-02_19h29.32.885,Motor Sequence,,2025.1.1,59.93770076,2025-10-02 19h30.31.288865 +0530
-150,z,79,3,19,x,0,0.3060838,None,19,3,79,3,,,,,429.1398621,,429.1273256,429.1398621,430.1392196,430.1392196,430.1392196,430.1392196,430.1392196,431.1397866,431.1397866,431.4601318,x,0,0.3060838,None,,,,,1,1,2025-10-02_19h29.32.885,Motor Sequence,,2025.1.1,59.93770076,2025-10-02 19h30.31.288865 +0530
-50,x,80,0,20,v,0,0.3381388,None,20,0,80,0,,,,,431.4734295,,431.460407,431.4734295,432.4726866,432.4726866,432.4726866,432.4726866,432.4726866,433.4728462,433.4728462,433.8257585,v,0,0.3381388,None,,,,,1,1,2025-10-02_19h29.32.885,Motor Sequence,,2025.1.1,59.93770076,2025-10-02 19h30.31.288865 +0530
150,v,81,1,20,z,0,0.4322798,None,20,1,81,1,,,,,433.8399871,,433.8260143,433.8399871,434.8397157,434.8397157,434.8397157,434.8397157,434.8397157,435.8398304,435.8398304,436.2764856,z,0,0.4322798,None,,,,,1,1,2025-10-02_19h29.32.885,Motor Sequence,,2025.1.1,59.93770076,2025-10-02 19h30.31.288865 +0530
50,c,82,2,20,c,1,0.9222496,None,20,2,82,2,,,,,436.2899552,,436.2767079,436.2899552,437.2900073,437.2900073,437.2900073,437.2900073,437.2900073,438.2895738,438.2895738,439.2260798,c,1,0.9222496,None,,,,,1,1,2025-10-02_19h29.32.885,Motor Sequence,,2025.1.1,59.93770076,2025-10-02 19h30.31.288865 +0530
-150,z,83,3,20,x,0,0.3017005,None,20,3,83,3,,,,,439.2399768,,439.226334,439.2399768,440.2396782,440.2396782,440.2396782,440.2396782,440.2396782,441.2398166,441.2398166,441.542171,x,0,0.3017005,None,,,,,1,1,2025-10-02_19h29.32.885,Motor Sequence,,2025.1.1,59.93770076,2025-10-02 19h30.31.288865 +0530
-50,x,84,0,21,v,0,0.1034324,None,21,0,84,0,,,,,441.5563462,,441.5424113,441.5563462,442.5558492,442.5558492,442.5558492,442.5558492,442.5558492,443.556131,443.556131,443.674675,v,0,0.1034324,None,,,,,1,1,2025-10-02_19h29.32.885,Motor Sequence,,2025.1.1,59.93770076,2025-10-02 19h30.31.288865 +0530
150,v,85,1,21,x,0,0.8245788,None,21,1,85,1,,,,,443.6897386,,443.674882,443.6897386,444.6897675,444.6897675,444.6897675,444.6897675,444.6897675,445.6895538,445.6895538,446.5252505,x,0,0.8245788,None,,,,,1,1,2025-10-02_19h29.32.885,Motor Sequence,,2025.1.1,59.93770076,2025-10-02 19h30.31.288865 +0530
50,c,86,2,21,c,1,2.6808204,None,21,2,86,2,,,,,446.5401232,,446.5254761,446.5401232,447.5404204,447.5404204,447.5404204,447.5404204,447.5404204,448.5389327,448.5389327,451.2257057,c,1,2.6808204,None,,,,,1,1,2025-10-02_19h29.32.885,Motor Sequence,,2025.1.1,59.93770076,2025-10-02 19h30.31.288865 +0530
-150,z,87,3,21,x,0,0.9502506,None,21,3,87,3,,,,,451.2397755,,451.2259411,451.2397755,452.2399372,452.2399372,452.2399372,452.2399372,452.2399372,453.2400268,453.2400268,454.1926227,x,0,0.9502506,None,,,,,1,1,2025-10-02_19h29.32.885,Motor Sequence,,2025.1.1,59.93770076,2025-10-02 19h30.31.288865 +0530
-50,x,88,0,22,v,0,0.9184934,None,22,0,88,0,,,,,454.2065404,,454.1928635,454.2065404,455.2062354,455.2062354,455.2062354,455.2062354,455.2062354,456.2064625,456.2064625,457.1412943,v,0,0.9184934,None,,,,,1,1,2025-10-02_19h29.32.885,Motor Sequence,,2025.1.1,59.93770076,2025-10-02 19h30.31.288865 +0530
150,v,89,1,22,z,0,0.5916026,None,22,1,89,1,,,,,457.1560478,,457.1415057,457.1560478,458.2039776,458.2039776,458.2039776,458.2039776,458.2039776,459.1559086,459.1559086,459.7586691,z,0,0.5916026,None,,,,,1,1,2025-10-02_19h29.32.885,Motor Sequence,,2025.1.1,59.93770076,2025-10-02 19h30.31.288865 +0530
50,c,90,2,22,c,1,0.6936394,None,22,2,90,2,,,,,459.7730138,,459.7588963,459.7730138,460.7729849,460.7729849,460.7729849,460.7729849,460.7729849,461.7731289,461.7731289,462.4752314,c,1,0.6936394,None,,,,,1,1,2025-10-02_19h29.32.885,Motor Sequence,,2025.1.1,59.93770076,2025-10-02 19h30.31.288865 +0530
-150,z,91,3,22,x,0,0.327741,None,22,3,91,3,,,,,462.4896247,,462.4754644,462.4896247,463.4907031,463.4907031,463.4907031,463.4907031,463.4907031,464.4890925,464.4890925,464.825673,x,0,0.327741,None,,,,,1,1,2025-10-02_19h29.32.885,Motor Sequence,,2025.1.1,59.93770076,2025-10-02 19h30.31.288865 +0530
-50,x,92,0,23,v,0,0.3176152,None,23,0,92,0,,,,,464.8393958,,464.8258994,464.8393958,465.8393683,465.8393683,465.8393683,465.8393683,465.8393683,466.8390186,466.8390186,467.1594516,v,0,0.3176152,None,,,,,1,1,2025-10-02_19h29.32.885,Motor Sequence,,2025.1.1,59.93770076,2025-10-02 19h30.31.288865 +0530
150,v,93,1,23,z,0,0.6101341,None,23,1,93,1,,,,,467.1735761,,467.159816,467.1735761,468.1731897,468.1731897,468.1731897,468.1731897,468.1896818,469.172715,469.172715,469.7917166,z,0,0.6101341,None,,,,,1,1,2025-10-02_19h29.32.885,Motor Sequence,,2025.1.1,59.93770076,2025-10-02 19h30.31.288865 +0530
50,c,94,2,23,z,0,0.807436,None,23,2,94,2,,,,,469.8063827,,469.7919308,469.8063827,470.8064188,470.8064188,470.8064188,470.8064188,470.8064188,471.8054643,471.8054643,472.6258386,z,0,0.807436,None,,,,,1,1,2025-10-02_19h29.32.885,Motor Sequence,,2025.1.1,59.93770076,2025-10-02 19h30.31.288865 +0530
-150,z,95,3,23,x,0,0.3078444,None,23,3,95,3,,,,,472.6404293,,472.6261153,472.6404293,473.6400063,473.6400063,473.6400063,473.6400063,473.6400063,474.6389006,474.6389006,474.9573671,x,0,0.3078444,None,,,,,1,1,2025-10-02_19h29.32.885,Motor Sequence,,2025.1.1,59.93770076,2025-10-02 19h30.31.288865 +0530
-50,x,96,0,24,v,0,0.6734307,None,24,0,96,0,,,,,474.9726291,,474.957559,474.9726291,475.9557146,475.9557146,475.9557146,475.9557146,475.9723172,476.9722795,476.9722795,477.6581576,v,0,0.6734307,None,,,,,1,1,2025-10-02_19h29.32.885,Motor Sequence,,2025.1.1,59.93770076,2025-10-02 19h30.31.288865 +0530
150,v,97,1,24,c,0,1.6672477,None,24,1,97,1,,,,,477.673122,,477.6583773,477.673122,478.6745183,478.6745183,478.6745183,478.6745183,478.6745183,479.6728396,479.6728396,481.3426486,c,0,1.6672477,None,,,,,1,1,2025-10-02_19h29.32.885,Motor Sequence,,2025.1.1,59.93770076,2025-10-02 19h30.31.288865 +0530
50,c,98,2,24,z,0,1.9071035,None,24,2,98,2,,,,,481.3555983,,481.3429027,481.3555983,482.3546253,482.3546253,482.3546253,482.3546253,482.3546253,483.3562733,483.3562733,485.2746825,z,0,1.9071035,None,,,,,1,1,2025-10-02_19h29.32.885,Motor Sequence,,2025.1.1,59.93770076,2025-10-02 19h30.31.288865 +0530
-150,z,99,3,24,x,0,1.146957,None,24,3,99,3,,,,,485.289652,,485.2748849,485.289652,486.2893779,486.2893779,486.2893779,486.2893779,486.2893779,487.2885115,487.2885115,488.4416478,x,0,1.146957,None,,,,,1,1,2025-10-02_19h29.32.885,Motor Sequence,,2025.1.1,59.93770076,2025-10-02 19h30.31.288865 +0530
-50,x,100,0,25,v,0,0.4496939,None,25,0,100,0,,,,,488.455849,,488.441874,488.455849,489.455682,489.455682,489.455682,489.455682,489.455682,490.4543922,490.4543922,490.9091968,v,0,0.4496939,None,,,,,1,1,2025-10-02_19h29.32.885,Motor Sequence,,2025.1.1,59.93770076,2025-10-02 19h30.31.288865 +0530
150,v,101,1,25,c,0,1.7627269,None,25,1,101,1,,,,,490.9221952,,490.9094508,490.9221952,491.9215085,491.9215085,491.9215085,491.9215085,491.9215085,492.9221995,492.9221995,494.6916278,c,0,1.7627269,None,,,,,1,1,2025-10-02_19h29.32.885,Motor Sequence,,2025.1.1,59.93770076,2025-10-02 19h30.31.288865 +0530
50,c,102,2,25,z,0,3.3585425,None,25,2,102,2,,,,,494.7060483,,494.6918591,494.7060483,495.7056288,495.7056288,495.7056288,495.7056288,495.7056288,496.7055893,496.7055893,500.0745027,z,0,3.3585425,None,,,,,1,1,2025-10-02_19h29.32.885,Motor Sequence,,2025.1.1,59.93770076,2025-10-02 19h30.31.288865 +0530
-150,z,103,3,25,x,0,0.7231137,None,25,3,103,3,,,,,500.0893986,,500.0747142,500.0893986,501.0891604,501.0891604,501.0891604,501.0891604,501.0891604,502.0891413,502.0891413,502.8248162,x,0,0.7231137,None,,,,,1,1,2025-10-02_19h29.32.885,Motor Sequence,,2025.1.1,59.93770076,2025-10-02 19h30.31.288865 +0530
-50,x,104,0,26,v,0,1.5239413,None,26,0,104,0,,,,,502.8388722,,502.8250332,502.8388722,503.8388563,503.8388563,503.8388563,503.8388563,503.8388563,504.8384747,504.8384747,506.3729369,v,0,1.5239413,None,,,,,1,1,2025-10-02_19h29.32.885,Motor Sequence,,2025.1.1,59.93770076,2025-10-02 19h30.31.288865 +0530
150,v,105,1,26,z,0,0.9918009,None,26,1,105,1,,,,,506.3884883,,506.3731736,506.3884883,507.3732385,507.3732385,507.3732385,507.3732385,507.3880046,508.3732827,508.3732827,509.3750455,z,0,0.9918009,None,,,,,1,1,2025-10-02_19h29.32.885,Motor Sequence,,2025.1.1,59.93770076,2025-10-02 19h30.31.288865 +0530
50,c,106,2,26,c,1,0.2703734,None,26,2,106,2,,,,,509.3892539,,509.3752964,509.3892539,510.3888497,510.3888497,510.3888497,510.3888497,510.3888497,511.3883183,511.3883183,511.6745636,c,1,0.2703734,None,,,,,1,1,2025-10-02_19h29.32.885,Motor Sequence,,2025.1.1,59.93770076,2025-10-02 19h30.31.288865 +0530
-150,z,107,3,26,x,0,0.3160395,None,26,3,107,3,,,,,511.6895376,,511.6747932,511.6895376,512.6725901,512.6725901,512.6725901,512.6725901,512.6889391,513.6886313,513.6886313,514.0063841,x,0,0.3160395,None,,,,,1,1,2025-10-02_19h29.32.885,Motor Sequence,,2025.1.1,59.93770076,2025-10-02 19h30.31.288865 +0530
-50,x,108,0,27,v,0,1.5325983,None,27,0,108,0,,,,,514.0215019,,514.0065405,514.0215019,515.0212132,515.0212132,515.0212132,515.0212132,515.0212132,516.0057731,516.0057731,517.543555,v,0,1.5325983,None,,,,,1,1,2025-10-02_19h29.32.885,Motor Sequence,,2025.1.1,59.93770076,2025-10-02 19h30.31.288865 +0530
150,v,109,1,27,x,0,1.0080449,None,27,1,109,1,,,,,517.5560119,,517.5438438,517.5560119,518.555602,518.555602,518.555602,518.555602,518.555602,519.5553717,519.5553717,520.5751092,x,0,1.0080449,None,,,,,1,1,2025-10-02_19h29.32.885,Motor Sequence,,2025.1.1,59.93770076,2025-10-02 19h30.31.288865 +0530
50,c,110,2,27,c,1,0.3193659,None,27,2,110,2,,,,,520.5891148,,520.5753602,520.5891148,521.5885497,521.5885497,521.5885497,521.5885497,521.5885497,522.5886799,522.5886799,522.9088055,c,1,0.3193659,None,,,,,1,1,2025-10-02_19h29.32.885,Motor Sequence,,2025.1.1,59.93770076,2025-10-02 19h30.31.288865 +0530
-150,z,111,3,27,v,0,1.0721526,None,27,3,111,3,,,,,522.9225293,,522.9090627,522.9225293,523.9221592,523.9221592,523.9221592,523.9221592,523.9221592,524.9221048,524.9221048,526.0075396,v,0,1.0721526,None,,,,,1,1,2025-10-02_19h29.32.885,Motor Sequence,,2025.1.1,59.93770076,2025-10-02 19h30.31.288865 +0530
-50,x,112,0,28,z,0,0.3367062,None,28,0,112,0,,,,,526.0234953,,526.0077592,526.0234953,527.0220167,527.0220167,527.0220167,527.0220167,527.0220167,528.0223833,528.0223833,528.3744517,z,0,0.3367062,None,,,,,1,1,2025-10-02_19h29.32.885,Motor Sequence,,2025.1.1,59.93770076,2025-10-02 19h30.31.288865 +0530
150,v,113,1,28,c,0,3.2628462,None,28,1,113,1,,,,,528.3894354,,528.3747043,528.3894354,529.388752,529.388752,529.388752,529.388752,529.388752,530.3873077,530.3873077,533.6580861,c,0,3.2628462,None,,,,,1,1,2025-10-02_19h29.32.885,Motor Sequence,,2025.1.1,59.93770076,2025-10-02 19h30.31.288865 +0530
50,c,114,2,28,z,0,1.7345507,None,28,2,114,2,,,,,533.6724178,,533.6583388,533.6724178,534.6727647,534.6727647,534.6727647,534.6727647,534.6727647,535.6719784,535.6719784,537.4085918,z,0,1.7345507,None,,,,,1,1,2025-10-02_19h29.32.885,Motor Sequence,,2025.1.1,59.93770076,2025-10-02 19h30.31.288865 +0530
-150,z,115,3,28,x,0,1.0598082,None,28,3,115,3,,,,,537.4219303,,537.4088119,537.4219303,538.4208687,538.4208687,538.4208687,538.4208687,538.4208687,539.4219987,539.4219987,540.4918331,x,0,1.0598082,None,,,,,1,1,2025-10-02_19h29.32.885,Motor Sequence,,2025.1.1,59.93770076,2025-10-02 19h30.31.288865 +0530
-50,x,116,0,29,v,0,0.9178775,None,29,0,116,0,,,,,540.5054872,,540.4921034,540.5054872,541.5051618,541.5051618,541.5051618,541.5051618,541.5051618,542.5053307,542.5053307,543.4261605,v,0,0.9178775,None,,,,,1,1,2025-10-02_19h29.32.885,Motor Sequence,,2025.1.1,59.93770076,2025-10-02 19h30.31.288865 +0530
150,v,117,1,29,z,0,1.2670679,None,29,1,117,1,,,,,543.4388271,,543.4264077,543.4388271,544.4393714,544.4393714,544.4393714,544.4393714,544.4393714,545.4394421,545.4394421,546.7092442,z,0,1.2670679,None,,,,,1,1,2025-10-02_19h29.32.885,Motor Sequence,,2025.1.1,59.93770076,2025-10-02 19h30.31.288865 +0530
50,c,118,2,29,z,0,1.483063,None,29,2,118,2,,,,,546.7222151,,546.7095989,546.7222151,547.7214377,547.7214377,547.7214377,547.7214377,547.7214377,548.721603,548.721603,550.2098177,z,0,1.483063,None,,,,,1,1,2025-10-02_19h29.32.885,Motor Sequence,,2025.1.1,59.93770076,2025-10-02 19h30.31.288865 +0530
-150,z,119,3,29,x,0,1.114251,None,29,3,119,3,,,,,550.2226124,,550.2100746,550.2226124,551.2227664,551.2227664,551.2227664,551.2227664,551.2227664,552.2225266,552.2225266,553.3423452,x,0,1.114251,None,,,,,1,1,2025-10-02_19h29.32.885,Motor Sequence,,2025.1.1,59.93770076,2025-10-02 19h30.31.288865 +0530
-50,x,120,0,30,v,0,0.7038003,None,30,0,120,0,,,,,553.3554811,,553.3425908,553.3554811,554.3548432,554.3548432,554.3548432,554.3548432,554.3706524,555.3556808,555.3556808,556.0598644,v,0,0.7038003,None,,,,,1,1,2025-10-02_19h29.32.885,Motor Sequence,,2025.1.1,59.93770076,2025-10-02 19h30.31.288865 +0530
150,v,121,1,30,z,0,0.8014639,None,30,1,121,1,,,,,556.0724735,,556.0601942,556.0724735,557.0719565,557.0719565,557.0719565,557.0719565,557.0719565,558.0719696,558.0719696,558.8753181,z,0,0.8014639,None,,,,,1,1,2025-10-02_19h29.32.885,Motor Sequence,,2025.1.1,59.93770076,2025-10-02 19h30.31.288865 +0530
50,c,122,2,30,z,0,0.5224755,None,30,2,122,2,,,,,558.8887946,,558.8755748,558.8887946,559.8884978,559.8884978,559.8884978,559.8884978,559.8884978,560.888613,560.888613,561.4256474,z,0,0.5224755,None,,,,,1,1,2025-10-02_19h29.32.885,Motor Sequence,,2025.1.1,59.93770076,2025-10-02 19h30.31.288865 +0530
-150,z,123,3,30,x,0,0.2361092,None,30,3,123,3,,,,,561.4388947,,561.4259241,561.4388947,562.4373693,562.4373693,562.4373693,562.4373693,562.4540897,563.4379095,563.4379095,563.6748693,x,0,0.2361092,None,,,,,1,1,2025-10-02_19h29.32.885,Motor Sequence,,2025.1.1,59.93770076,2025-10-02 19h30.31.288865 +0530
-50,x,124,0,31,v,0,0.2956779,None,31,0,124,0,,,,,563.6887541,,563.6751173,563.6887541,564.6881395,564.6881395,564.6881395,564.6881395,564.6881395,565.6881647,565.6881647,565.9900632,v,0,0.2956779,None,,,,,1,1,2025-10-02_19h29.32.885,Motor Sequence,,2025.1.1,59.93770076,2025-10-02 19h30.31.288865 +0530
150,v,125,1,31,z,0,1.085542,None,31,1,125,1,,,,,566.0052159,,565.9902784,566.0052159,567.0052897,567.0052897,567.0052897,567.0052897,567.0052897,568.0045923,568.0045923,569.0919861,z,0,1.085542,None,,,,,1,1,2025-10-02_19h29.32.885,Motor Sequence,,2025.1.1,59.93770076,2025-10-02 19h30.31.288865 +0530
50,c,126,2,31,v,0,1.0552505,None,31,2,126,2,,,,,569.105329,,569.0922593,569.105329,570.104231,570.104231,570.104231,570.104231,570.1205971,571.1052644,571.1052644,572.1740482,v,0,1.0552505,None,,,,,1,1,2025-10-02_19h29.32.885,Motor Sequence,,2025.1.1,59.93770076,2025-10-02 19h30.31.288865 +0530
-150,z,127,3,31,z,1,0.9634322,None,31,3,127,3,,,,,572.1879126,,572.1742749,572.1879126,573.1882642,573.1882642,573.1882642,573.1882642,573.1882642,574.187961,574.187961,575.1577956,z,1,0.9634322,None,,,,,1,1,2025-10-02_19h29.32.885,Motor Sequence,,2025.1.1,59.93770076,2025-10-02 19h30.31.288865 +0530
-50,x,128,0,32,v,0,0.3050041,None,32,0,128,0,,,,,575.171555,,575.1580566,575.171555,576.1714367,576.1714367,576.1714367,576.1714367,576.1714367,577.1717789,577.1717789,577.4904197,v,0,0.3050041,None,,,,,1,1,2025-10-02_19h29.32.885,Motor Sequence,,2025.1.1,59.93770076,2025-10-02 19h30.31.288865 +0530
150,v,129,1,32,z,0,2.1696663,None,32,1,129,1,,,,,577.504939,,577.4906291,577.504939,578.503754,578.503754,578.503754,578.503754,578.503754,579.5045345,579.5045345,581.6914222,z,0,2.1696663,None,,,,,1,1,2025-10-02_19h29.32.885,Motor Sequence,,2025.1.1,59.93770076,2025-10-02 19h30.31.288865 +0530
50,c,130,2,32,z,0,0.9937451,None,32,2,130,2,,,,,581.704793,,581.6916857,581.704793,582.7041759,582.7041759,582.7041759,582.7041759,582.7041759,583.7045072,583.7045072,584.7066034,z,0,0.9937451,None,,,,,1,1,2025-10-02_19h29.32.885,Motor Sequence,,2025.1.1,59.93770076,2025-10-02 19h30.31.288865 +0530
-150,z,131,3,32,x,0,1.4511375,None,32,3,131,3,,,,,584.7221683,,584.7068256,584.7221683,585.7055491,585.7055491,585.7055491,585.7055491,585.7221404,586.705372,586.705372,588.1589246,x,0,1.4511375,None,,,,,1,1,2025-10-02_19h29.32.885,Motor Sequence,,2025.1.1,59.93770076,2025-10-02 19h30.31.288865 +0530
-50,x,132,0,33,v,0,0.7433676,None,33,0,132,0,,,,,588.1719766,,588.1592136,588.1719766,589.1716459,589.1716459,589.1716459,589.1716459,589.1716459,590.1717194,590.1717194,590.9237735,v,0,0.7433676,None,,,,,1,1,2025-10-02_19h29.32.885,Motor Sequence,,2025.1.1,59.93770076,2025-10-02 19h30.31.288865 +0530
150,v,133,1,33,z,0,1.5062287,None,33,1,133,1,,,,,590.93874,,590.924004,590.93874,591.9380594,591.9380594,591.9380594,591.9380594,591.9380594,592.938717,592.938717,594.4552162,z,0,1.5062287,None,,,,,1,1,2025-10-02_19h29.32.885,Motor Sequence,,2025.1.1,59.93770076,2025-10-02 19h30.31.288865 +0530
50,c,134,2,33,z,0,2.3827539,None,33,2,134,2,,,,,594.470375,,594.4554094,594.470375,595.4555604,595.4555604,595.4555604,595.4555604,595.4719855,596.4546758,596.4546758,598.8411757,z,0,2.3827539,None,,,,,1,1,2025-10-02_19h29.32.885,Motor Sequence,,2025.1.1,59.93770076,2025-10-02 19h30.31.288865 +0530
-150,z,135,3,33,x,0,0.4433971,None,33,3,135,3,,,,,598.8550311,,598.8414913,598.8550311,599.8560207,599.8560207,599.8560207,599.8560207,599.8560207,600.8553803,600.8553803,601.3080641,x,0,0.4433971,None,,,,,1,1,2025-10-02_19h29.32.885,Motor Sequence,,2025.1.1,59.93770076,2025-10-02 19h30.31.288865 +0530
-50,x,136,0,34,v,0,0.3076936,None,34,0,136,0,,,,,601.3215667,,601.3083524,601.3215667,602.3203642,602.3203642,602.3203642,602.3203642,602.3371294,603.3210718,603.3210718,603.6408606,v,0,0.3076936,None,,,,,1,1,2025-10-02_19h29.32.885,Motor Sequence,,2025.1.1,59.93770076,2025-10-02 19h30.31.288865 +0530
150,v,137,1,34,c,0,1.4026872,None,34,1,137,1,,,,,603.6542943,,603.6410964,603.6542943,604.6553232,604.6553232,604.6553232,604.6553232,604.6553232,605.6549932,605.6549932,607.0589077,c,0,1.4026872,None,,,,,1,1,2025-10-02_19h29.32.885,Motor Sequence,,2025.1.1,59.93770076,2025-10-02 19h30.31.288865 +0530
50,c,138,2,34,z,0,0.3053166,None,34,2,138,2,,,,,607.0721348,,607.0592232,607.0721348,608.0713306,608.0713306,608.0713306,608.0713306,608.0713306,609.0721109,609.0721109,609.3907081,z,0,0.3053166,None,,,,,1,1,2025-10-02_19h29.32.885,Motor Sequence,,2025.1.1,59.93770076,2025-10-02 19h30.31.288865 +0530
-150,z,139,3,34,x,0,0.2677192,None,34,3,139,3,,,,,609.4050147,,609.3910934,609.4050147,610.4039965,610.4039965,610.4039965,610.4039965,610.4198786,611.4043875,611.4043875,611.6748349,x,0,0.2677192,None,,,,,1,1,2025-10-02_19h29.32.885,Motor Sequence,,2025.1.1,59.93770076,2025-10-02 19h30.31.288865 +0530
-50,x,140,0,35,v,0,0.2331972,None,35,0,140,0,,,,,611.6883759,,611.6750918,611.6883759,612.6879196,612.6879196,612.6879196,612.6879196,612.6879196,613.6888094,613.6888094,613.9275135,v,0,0.2331972,None,,,,,1,1,2025-10-02_19h29.32.885,Motor Sequence,,2025.1.1,59.93770076,2025-10-02 19h30.31.288865 +0530
150,v,141,1,35,c,0,0.9134557,None,35,1,141,1,,,,,613.937861,,613.9277697,613.937861,614.9379221,614.9379221,614.9379221,614.9379221,614.9379221,615.9388235,615.9388235,616.8574365,c,0,0.9134557,None,,,,,1,1,2025-10-02_19h29.32.885,Motor Sequence,,2025.1.1,59.93770076,2025-10-02 19h30.31.288865 +0530
50,c,142,2,35,z,0,0.2750095,None,35,2,142,2,,,,,616.871045,,616.8576834,616.871045,617.8708608,617.8708608,617.8708608,617.8708608,617.8708608,618.8704404,618.8704404,619.1569386,z,0,0.2750095,None,,,,,1,1,2025-10-02_19h29.32.885,Motor Sequence,,2025.1.1,59.93770076,2025-10-02 19h30.31.288865 +0530
-150,z,143,3,35,x,0,0.5187042,None,35,3,143,3,,,,,619.1711729,,619.1571373,619.1711729,620.1714477,620.1714477,620.1714477,620.1714477,620.1714477,621.1712939,621.1712939,621.6905943,x,0,0.5187042,None,,,,,1,1,2025-10-02_19h29.32.885,Motor Sequence,,2025.1.1,59.93770076,2025-10-02 19h30.31.288865 +0530
-50,x,144,0,36,v,0,0.5743477,None,36,0,144,0,,,,,621.7045147,,621.6908412,621.7045147,622.7048557,622.7048557,622.7048557,622.7048557,622.7048557,623.7045326,623.7045326,624.2900258,v,0,0.5743477,None,,,,,1,1,2025-10-02_19h29.32.885,Motor Sequence,,2025.1.1,59.93770076,2025-10-02 19h30.31.288865 +0530
150,v,145,1,36,z,0,0.2463113,None,36,1,145,1,,,,,624.3038138,,624.2902976,624.3038138,625.3035317,625.3035317,625.3035317,625.3035317,625.3035317,626.3031639,626.3031639,626.5558641,z,0,0.2463113,None,,,,,1,1,2025-10-02_19h29.32.885,Motor Sequence,,2025.1.1,59.93770076,2025-10-02 19h30.31.288865 +0530
50,c,146,2,36,z,0,0.2473787,None,36,2,146,2,,,,,626.5709759,,626.5560778,626.5709759,627.5552532,627.5552532,627.5552532,627.5552532,627.5716675,628.5551829,628.5551829,628.8052564,z,0,0.2473787,None,,,,,1,1,2025-10-02_19h29.32.885,Motor Sequence,,2025.1.1,59.93770076,2025-10-02 19h30.31.288865 +0530
-150,z,147,3,36,x,0,0.6915193,None,36,3,147,3,,,,,628.8202498,,628.8054556,628.8202498,629.8050969,629.8050969,629.8050969,629.8050969,629.8212943,630.8053165,630.8053165,631.5080286,x,0,0.6915193,None,,,,,1,1,2025-10-02_19h29.32.885,Motor Sequence,,2025.1.1,59.93770076,2025-10-02 19h30.31.288865 +0530
-50,x,148,0,37,v,0,0.3511369,None,37,0,148,0,,,,,631.5217173,,631.5083116,631.5217173,632.521273,632.521273,632.521273,632.521273,632.521273,633.5199191,633.5199191,633.8752698,v,0,0.3511369,None,,,,,1,1,2025-10-02_19h29.32.885,Motor Sequence,,2025.1.1,59.93770076,2025-10-02 19h30.31.288865 +0530
150,v,149,1,37,c,0,0.2986836,None,37,1,149,1,,,,,633.8876804,,633.8755593,633.8876804,634.8865605,634.8865605,634.8865605,634.8865605,634.8865605,635.8877885,635.8877885,636.1924281,c,0,0.2986836,None,,,,,1,1,2025-10-02_19h29.32.885,Motor Sequence,,2025.1.1,59.93770076,2025-10-02 19h30.31.288865 +0530
50,c,150,2,37,z,0,0.3433961,None,37,2,150,2,,,,,636.2053111,,636.1927705,636.2053111,637.2043882,637.2043882,637.2043882,637.2043882,637.2043882,638.2041473,638.2041473,638.559057,z,0,0.3433961,None,,,,,1,1,2025-10-02_19h29.32.885,Motor Sequence,,2025.1.1,59.93770076,2025-10-02 19h30.31.288865 +0530
-150,z,151,3,37,x,0,0.3163835,None,37,3,151,3,,,,,638.5729409,,638.559409,638.5729409,639.5710522,639.5710522,639.5710522,639.5710522,639.5710522,640.571252,640.571252,640.8938634,x,0,0.3163835,None,,,,,1,1,2025-10-02_19h29.32.885,Motor Sequence,,2025.1.1,59.93770076,2025-10-02 19h30.31.288865 +0530
-50,x,152,0,38,v,0,0.2390928,None,38,0,152,0,,,,,640.9048454,,640.8941999,640.9048454,641.9049743,641.9049743,641.9049743,641.9049743,641.9049743,642.90466,642.90466,643.156117,v,0,0.2390928,None,,,,,1,1,2025-10-02_19h29.32.885,Motor Sequence,,2025.1.1,59.93770076,2025-10-02 19h30.31.288865 +0530
150,v,153,1,38,c,0,2.0920259,None,38,1,153,1,,,,,643.1699754,,643.1563728,643.1699754,644.1698639,644.1698639,644.1698639,644.1698639,644.1698639,645.17145,645.17145,647.2731717,c,0,2.0920259,None,,,,,1,1,2025-10-02_19h29.32.885,Motor Sequence,,2025.1.1,59.93770076,2025-10-02 19h30.31.288865 +0530
50,c,154,2,38,z,0,0.486417,None,38,2,154,2,,,,,647.2878149,,647.2734214,647.2878149,648.2872774,648.2872774,648.2872774,648.2872774,648.2872774,649.2884563,649.2884563,649.7761523,z,0,0.486417,None,,,,,1,1,2025-10-02_19h29.32.885,Motor Sequence,,2025.1.1,59.93770076,2025-10-02 19h30.31.288865 +0530
-150,z,155,3,38,x,0,0.2987957,None,38,3,155,3,,,,,649.7874648,,649.7765007,649.7874648,650.7865576,650.7865576,650.7865576,650.7865576,650.7865576,651.7877437,651.7877437,652.0924696,x,0,0.2987957,None,,,,,1,1,2025-10-02_19h29.32.885,Motor Sequence,,2025.1.1,59.93770076,2025-10-02 19h30.31.288865 +0530
-50,x,156,0,39,v,0,0.3344298,None,39,0,156,0,,,,,652.1047544,,652.0927608,652.1047544,653.1048425,653.1048425,653.1048425,653.1048425,653.1048425,654.1045448,654.1045448,654.4446687,v,0,0.3344298,None,,,,,1,1,2025-10-02_19h29.32.885,Motor Sequence,,2025.1.1,59.93770076,2025-10-02 19h30.31.288865 +0530
150,v,157,1,39,c,0,0.3275796,None,39,1,157,1,,,,,654.4542336,,654.4451105,654.4542336,655.454502,655.454502,655.454502,655.454502,655.454502,656.4549393,656.4549393,656.7904516,c,0,0.3275796,None,,,,,1,1,2025-10-02_19h29.32.885,Motor Sequence,,2025.1.1,59.93770076,2025-10-02 19h30.31.288865 +0530
50,c,158,2,39,z,0,0.2992399,None,39,2,158,2,,,,,656.8048841,,656.7907352,656.8048841,657.8040689,657.8040689,657.8040689,657.8040689,657.8040689,658.8038818,658.8038818,659.1062113,z,0,0.2992399,None,,,,,1,1,2025-10-02_19h29.32.885,Motor Sequence,,2025.1.1,59.93770076,2025-10-02 19h30.31.288865 +0530
-150,z,159,3,39,x,0,0.3172581,None,39,3,159,3,,,,,659.1201329,,659.1064795,659.1201329,660.104488,660.104488,660.104488,660.104488,660.1228373,661.1208142,661.1208142,661.4414415,x,0,0.3172581,None,,,,,1,1,2025-10-02_19h29.32.885,Motor Sequence,,2025.1.1,59.93770076,2025-10-02 19h30.31.288865 +0530
-50,x,160,0,40,v,0,0.267839,None,40,0,160,0,,,,,661.4542014,,661.4417138,661.4542014,662.4548104,662.4548104,662.4548104,662.4548104,662.4548104,663.4541898,663.4541898,663.7252687,v,0,0.267839,None,,,,,1,1,2025-10-02_19h29.32.885,Motor Sequence,,2025.1.1,59.93770076,2025-10-02 19h30.31.288865 +0530
150,v,161,1,40,c,0,1.6629885,None,40,1,161,1,,,,,663.7377455,,663.7255802,663.7377455,664.7378466,664.7378466,664.7378466,664.7378466,664.7378466,665.7381935,665.7381935,667.4095593,c,0,1.6629885,None,,,,,1,1,2025-10-02_19h29.32.885,Motor Sequence,,2025.1.1,59.93770076,2025-10-02 19h30.31.288865 +0530
50,c,162,2,40,z,0,0.4935446,None,40,2,162,2,,,,,667.4208009,,667.4099264,667.4208009,668.4207754,668.4207754,668.4207754,668.4207754,668.4207754,669.4210838,669.4210838,669.9249095,z,0,0.4935446,None,,,,,1,1,2025-10-02_19h29.32.885,Motor Sequence,,2025.1.1,59.93770076,2025-10-02 19h30.31.288865 +0530
-150,z,163,3,40,x,0,0.3196819,None,40,3,163,3,,,,,669.9384218,,669.9252733,669.9384218,670.9380989,670.9380989,670.9380989,670.9380989,670.9380989,671.9380041,671.9380041,672.2586052,x,0,0.3196819,None,,,,,1,1,2025-10-02_19h29.32.885,Motor Sequence,,2025.1.1,59.93770076,2025-10-02 19h30.31.288865 +0530
-50,x,164,0,41,v,0,0.4222397,None,41,0,164,0,,,,,672.2711193,,672.259116,672.2711193,673.270891,673.270891,673.270891,673.270891,673.270891,674.2708275,674.2708275,674.7073439,v,0,0.4222397,None,,,,,1,1,2025-10-02_19h29.32.885,Motor Sequence,,2025.1.1,59.93770076,2025-10-02 19h30.31.288865 +0530
150,v,165,1,41,c,0,0.9857163,None,41,1,165,1,,,,,674.7210124,,674.7076387,674.7210124,675.7202954,675.7202954,675.7202954,675.7202954,675.7202954,676.7221798,676.7221798,677.7255627,c,0,0.9857163,None,,,,,1,1,2025-10-02_19h29.32.885,Motor Sequence,,2025.1.1,59.93770076,2025-10-02 19h30.31.288865 +0530
50,c,166,2,41,z,0,0.4679965,None,41,2,166,2,,,,,677.7382052,,677.7258895,677.7382052,678.7371855,678.7371855,678.7371855,678.7371855,678.7371855,679.7377884,679.7377884,680.2089639,z,0,0.4679965,None,,,,,1,1,2025-10-02_19h29.32.885,Motor Sequence,,2025.1.1,59.93770076,2025-10-02 19h30.31.288865 +0530
-150,z,167,3,41,x,0,0.2865839,None,41,3,167,3,,,,,680.2208077,,680.2093769,680.2208077,681.2206949,681.2206949,681.2206949,681.2206949,681.2206949,682.22107,682.22107,682.5088721,x,0,0.2865839,None,,,,,1,1,2025-10-02_19h29.32.885,Motor Sequence,,2025.1.1,59.93770076,2025-10-02 19h30.31.288865 +0530
-50,x,168,0,42,v,0,0.337185,None,42,0,168,0,,,,,682.5208995,,682.5091897,682.5208995,683.5212677,683.5212677,683.5212677,683.5212677,683.5212677,684.521055,684.521055,684.8589509,v,0,0.337185,None,,,,,1,1,2025-10-02_19h29.32.885,Motor Sequence,,2025.1.1,59.93770076,2025-10-02 19h30.31.288865 +0530
150,v,169,1,42,c,0,2.0670336,None,42,1,169,1,,,,,684.8705931,,684.8592735,684.8705931,685.8710699,685.8710699,685.8710699,685.8710699,685.8710699,686.8714218,686.8714218,688.9440239,c,0,2.0670336,None,,,,,1,1,2025-10-02_19h29.32.885,Motor Sequence,,2025.1.1,59.93770076,2025-10-02 19h30.31.288865 +0530
50,c,170,2,42,z,0,1.8653925,None,42,2,170,2,,,,,688.9547034,,688.9448414,688.9547034,689.9536082,689.9536082,689.9536082,689.9536082,689.9536082,690.9527634,690.9527634,692.8250831,z,0,1.8653925,None,,,,,1,1,2025-10-02_19h29.32.885,Motor Sequence,,2025.1.1,59.93770076,2025-10-02 19h30.31.288865 +0530
-150,z,171,3,42,x,0,1.2389577,None,42,3,171,3,,,,,692.8375072,,692.8254211,692.8375072,693.8371535,693.8371535,693.8371535,693.8371535,693.8371535,694.8378005,694.8378005,696.0886608,x,0,1.2389577,None,,,,,1,1,2025-10-02_19h29.32.885,Motor Sequence,,2025.1.1,59.93770076,2025-10-02 19h30.31.288865 +0530
-50,x,172,0,43,v,0,0.3131603,None,43,0,172,0,,,,,696.1029742,,696.0889342,696.1029742,697.0880225,697.0880225,697.0880225,697.0880225,697.1038164,698.0867251,698.0867251,698.4087902,v,0,0.3131603,None,,,,,1,1,2025-10-02_19h29.32.885,Motor Sequence,,2025.1.1,59.93770076,2025-10-02 19h30.31.288865 +0530
150,v,173,1,43,z,0,0.3450764,None,43,1,173,1,,,,,698.4208719,,698.4091399,698.4208719,699.4206335,699.4206335,699.4206335,699.4206335,699.4206335,700.420677,700.420677,700.7739061,z,0,0.3450764,None,,,,,1,1,2025-10-02_19h29.32.885,Motor Sequence,,2025.1.1,59.93770076,2025-10-02 19h30.31.288865 +0530
50,c,174,2,43,c,1,0.2956698,None,43,2,174,2,,,,,700.7882246,,700.7742292,700.7882246,701.7869273,701.7869273,701.7869273,701.7869273,701.7869273,702.7876478,702.7876478,703.0917245,c,1,0.2956698,None,,,,,1,1,2025-10-02_19h29.32.885,Motor Sequence,,2025.1.1,59.93770076,2025-10-02 19h30.31.288865 +0530
-150,z,175,3,43,z,1,0.4156587,None,43,3,175,3,,,,,703.1049616,,703.0921442,703.1049616,704.1037109,704.1037109,704.1037109,704.1037109,704.1037109,705.1050113,705.1050113,705.5262119,z,1,0.4156587,None,,,,,1,1,2025-10-02_19h29.32.885,Motor Sequence,,2025.1.1,59.93770076,2025-10-02 19h30.31.288865 +0530
-50,x,176,0,44,v,0,0.3564485,None,44,0,176,0,,,,,705.5368958,,705.5265144,705.5368958,706.5370835,706.5370835,706.5370835,706.5370835,706.5370835,707.5370163,707.5370163,707.9093376,v,0,0.3564485,None,,,,,1,1,2025-10-02_19h29.32.885,Motor Sequence,,2025.1.1,59.93770076,2025-10-02 19h30.31.288865 +0530
150,v,177,1,44,z,0,2.0297154,None,44,1,177,1,,,,,707.920713,,707.909746,707.920713,708.9210202,708.9210202,708.9210202,708.9210202,708.9210202,709.9212923,709.9212923,711.9579382,z,0,2.0297154,None,,,,,1,1,2025-10-02_19h29.32.885,Motor Sequence,,2025.1.1,59.93770076,2025-10-02 19h30.31.288865 +0530
50,c,178,2,44,c,1,0.3204471,None,44,2,178,2,,,,,711.9719056,,711.9583114,711.9719056,712.971582,712.971582,712.971582,712.971582,712.9871734,713.9707618,713.9707618,714.2934955,c,1,0.3204471,None,,,,,1,1,2025-10-02_19h29.32.885,Motor Sequence,,2025.1.1,59.93770076,2025-10-02 19h30.31.288865 +0530
-150,z,179,3,44,z,1,0.4972922,None,44,3,179,3,,,,,714.3038561,,714.2937971,714.3038561,715.3031794,715.3031794,715.3031794,715.3031794,715.3031794,716.3040858,716.3040858,716.8090154,z,1,0.4972922,None,,,,,1,1,2025-10-02_19h29.32.885,Motor Sequence,,2025.1.1,59.93770076,2025-10-02 19h30.31.288865 +0530
-50,x,180,0,45,v,0,0.3204712,None,45,0,180,0,,,,,716.8204751,,716.8094345,716.8204751,717.8202181,717.8202181,717.8202181,717.8202181,717.8202181,718.8205966,718.8205966,719.1595089,v,0,0.3204712,None,,,,,1,1,2025-10-02_19h29.32.885,Motor Sequence,,2025.1.1,59.93770076,2025-10-02 19h30.31.288865 +0530
150,v,181,1,45,c,0,1.5160171,None,45,1,181,1,,,,,719.171586,,719.1598057,719.171586,720.1706438,720.1706438,720.1706438,720.1706438,720.1706438,721.1705162,721.1705162,722.6916085,c,0,1.5160171,None,,,,,1,1,2025-10-02_19h29.32.885,Motor Sequence,,2025.1.1,59.93770076,2025-10-02 19h30.31.288865 +0530
50,c,182,2,45,z,0,0.8110158,None,45,2,182,2,,,,,722.7038295,,722.691917,722.7038295,723.7036756,723.7036756,723.7036756,723.7036756,723.7036756,724.7036208,724.7036208,725.5210407,z,0,0.8110158,None,,,,,1,1,2025-10-02_19h29.32.885,Motor Sequence,,2025.1.1,59.93770076,2025-10-02 19h30.31.288865 +0530
-150,z,183,3,45,x,0,1.1445936,None,45,3,183,3,,,,,725.5355982,,725.5212839,725.5355982,726.5203969,726.5203969,726.5203969,726.5203969,726.5369835,727.5202383,727.5202383,728.6729058,x,0,1.1445936,None,,,,,1,1,2025-10-02_19h29.32.885,Motor Sequence,,2025.1.1,59.93770076,2025-10-02 19h30.31.288865 +0530
-50,x,184,0,46,v,0,0.5149192,None,46,0,184,0,,,,,728.6875637,,728.6731796,728.6875637,729.6862231,729.6862231,729.6862231,729.6862231,729.6862231,730.6867185,730.6867185,731.2048439,v,0,0.5149192,None,,,,,1,1,2025-10-02_19h29.32.885,Motor Sequence,,2025.1.1,59.93770076,2025-10-02 19h30.31.288865 +0530
150,v,185,1,46,c,0,1.0094918,None,46,1,185,1,,,,,731.2190344,,731.2051126,731.2190344,732.2042922,732.2042922,732.2042922,732.2042922,732.2204906,733.2202866,733.2202866,734.239457,c,0,1.0094918,None,,,,,1,1,2025-10-02_19h29.32.885,Motor Sequence,,2025.1.1,59.93770076,2025-10-02 19h30.31.288865 +0530
50,c,186,2,46,z,0,0.2957046,None,46,2,186,2,,,,,734.2538762,,734.239725,734.2538762,735.2535209,735.2535209,735.2535209,735.2535209,735.2535209,736.2538491,736.2538491,736.5579073,z,0,0.2957046,None,,,,,1,1,2025-10-02_19h29.32.885,Motor Sequence,,2025.1.1,59.93770076,2025-10-02 19h30.31.288865 +0530
-150,z,187,3,46,x,0,0.3580996,None,46,3,187,3,,,,,736.5707389,,736.5582268,736.5707389,737.5699499,737.5699499,737.5699499,737.5699499,737.5699499,738.5710876,738.5710876,738.9408973,x,0,0.3580996,None,,,,,1,1,2025-10-02_19h29.32.885,Motor Sequence,,2025.1.1,59.93770076,2025-10-02 19h30.31.288865 +0530
-50,x,188,0,47,v,0,0.7734052,None,47,0,188,0,,,,,738.9525942,,738.9413592,738.9525942,739.9527217,739.9527217,739.9527217,739.9527217,739.9527217,740.9524344,740.9524344,741.7416889,v,0,0.7734052,None,,,,,1,1,2025-10-02_19h29.32.885,Motor Sequence,,2025.1.1,59.93770076,2025-10-02 19h30.31.288865 +0530
150,v,189,1,47,c,0,2.5687796,None,47,1,189,1,,,,,741.7532921,,741.7420735,741.7532921,742.7532368,742.7532368,742.7532368,742.7532368,742.7532368,743.7537526,743.7537526,746.3250358,c,0,2.5687796,None,,,,,1,1,2025-10-02_19h29.32.885,Motor Sequence,,2025.1.1,59.93770076,2025-10-02 19h30.31.288865 +0530
50,c,190,2,47,z,0,0.7466547,None,47,2,190,2,,,,,746.3377919,,746.3253062,746.3377919,747.3358229,747.3358229,747.3358229,747.3358229,747.3523266,748.3365997,748.3365997,749.0922579,z,0,0.7466547,None,,,,,1,1,2025-10-02_19h29.32.885,Motor Sequence,,2025.1.1,59.93770076,2025-10-02 19h30.31.288865 +0530
-150,z,191,3,47,x,0,0.5631949,None,47,3,191,3,,,,,749.1043092,,749.0925791,749.1043092,750.1037955,750.1037955,750.1037955,750.1037955,750.1037955,751.1036322,751.1036322,751.6749438,x,0,0.5631949,None,,,,,1,1,2025-10-02_19h29.32.885,Motor Sequence,,2025.1.1,59.93770076,2025-10-02 19h30.31.288865 +0530
-50,x,192,0,48,v,0,0.3043153,None,48,0,192,0,,,,,751.6871372,,751.6752666,751.6871372,752.6854091,752.6854091,752.6854091,752.6854091,752.6854091,753.6872735,753.6872735,754.0064147,v,0,0.3043153,None,,,,,1,1,2025-10-02_19h29.32.885,Motor Sequence,,2025.1.1,59.93770076,2025-10-02 19h30.31.288865 +0530
150,v,193,1,48,z,0,4.0034675,None,48,1,193,1,,,,,754.0201308,,754.006703,754.0201308,755.0189276,755.0189276,755.0189276,755.0189276,755.0352313,756.0199967,756.0199967,760.0250547,z,0,4.0034675,None,,,,,1,1,2025-10-02_19h29.32.885,Motor Sequence,,2025.1.1,59.93770076,2025-10-02 19h30.31.288865 +0530
50,c,194,2,48,z,0,0.3294593,None,48,2,194,2,,,,,760.0369722,,760.0254617,760.0369722,761.0360994,761.0360994,761.0360994,761.0360994,761.0360994,762.0367272,762.0367272,762.3746612,z,0,0.3294593,None,,,,,1,1,2025-10-02_19h29.32.885,Motor Sequence,,2025.1.1,59.93770076,2025-10-02 19h30.31.288865 +0530
-150,z,195,3,48,x,0,1.5971978,None,48,3,195,3,,,,,762.3867941,,762.3750257,762.3867941,763.3865903,763.3865903,763.3865903,763.3865903,763.3865903,764.386856,764.386856,765.9916377,x,0,1.5971978,None,,,,,1,1,2025-10-02_19h29.32.885,Motor Sequence,,2025.1.1,59.93770076,2025-10-02 19h30.31.288865 +0530
-50,x,196,0,49,v,0,0.1664453,None,49,0,196,0,,,,,766.0034969,,765.9919707,766.0034969,767.0028532,767.0028532,767.0028532,767.0028532,767.0028532,768.0023737,768.0023737,768.1750438,v,0,0.1664453,None,,,,,1,1,2025-10-02_19h29.32.885,Motor Sequence,,2025.1.1,59.93770076,2025-10-02 19h30.31.288865 +0530
150,v,197,1,49,c,0,1.0768071,None,49,1,197,1,,,,,768.1865392,,768.1753476,768.1865392,769.1870438,769.1870438,769.1870438,769.1870438,769.1870438,770.1864891,770.1864891,771.2711884,c,0,1.0768071,None,,,,,1,1,2025-10-02_19h29.32.885,Motor Sequence,,2025.1.1,59.93770076,2025-10-02 19h30.31.288865 +0530
50,c,198,2,49,z,0,0.6762778,None,49,2,198,2,,,,,771.2853204,,771.271471,771.2853204,772.2711721,772.2711721,772.2711721,772.2711721,772.2858966,773.286349,773.286349,773.9751756,z,0,0.6762778,None,,,,,1,1,2025-10-02_19h29.32.885,Motor Sequence,,2025.1.1,59.93770076,2025-10-02 19h30.31.288865 +0530
-150,z,199,3,49,x,0,1.0296866,None,49,3,199,3,,,,,773.9856989,,773.9754486,773.9856989,774.9852858,774.9852858,774.9852858,774.9852858,774.9852858,775.9863735,775.9863735,777.0237602,x,0,1.0296866,None,,,,,1,1,2025-10-02_19h29.32.885,Motor Sequence,,2025.1.1,59.93770076,2025-10-02 19h30.31.288865 +0530
-150,z,0,0,0,x,0,0.7537206,None,,,,,0,0,0,3,777.0526597,,777.040929,777.0526597,778.0365709,778.0365709,778.0365709,778.0365709,778.0538035,779.0365784,779.0365784,779.7919081,,,,,x,0,0.7537206,None,1,1,2025-10-02_19h29.32.885,Motor Sequence,,2025.1.1,59.93770076,2025-10-02 19h30.31.288865 +0530
-50,x,1,1,0,v,0,0.3919558,None,,,,,0,1,1,0,779.8034828,,779.7922737,779.8034828,780.8030614,780.8030614,780.8030614,780.8030614,780.8030614,781.801867,781.801867,782.204545,,,,,v,0,0.3919558,None,1,1,2025-10-02_19h29.32.885,Motor Sequence,,2025.1.1,59.93770076,2025-10-02 19h30.31.288865 +0530
150,v,2,2,0,c,0,1.3209906,None,,,,,0,2,2,1,782.2187706,,782.2048087,782.2187706,783.2025786,783.2025786,783.2025786,783.2025786,783.2199456,784.2195446,784.2195446,785.5425924,,,,,c,0,1.3209906,None,1,1,2025-10-02_19h29.32.885,Motor Sequence,,2025.1.1,59.93770076,2025-10-02 19h30.31.288865 +0530
50,c,3,3,0,z,0,0.413412,None,,,,,0,3,3,2,785.5528788,,785.542957,785.5528788,786.5532587,786.5532587,786.5532587,786.5532587,786.5532587,787.5529985,787.5529985,787.9738171,,,,,z,0,0.413412,None,1,1,2025-10-02_19h29.32.885,Motor Sequence,,2025.1.1,59.93770076,2025-10-02 19h30.31.288865 +0530
-150,z,4,0,1,x,0,0.5201329,None,,,,,1,0,4,3,787.9859497,,787.9741315,787.9859497,788.986292,788.986292,788.986292,788.986292,788.986292,789.9860903,789.9860903,790.5081709,,,,,x,0,0.5201329,None,1,1,2025-10-02_19h29.32.885,Motor Sequence,,2025.1.1,59.93770076,2025-10-02 19h30.31.288865 +0530
50,c,5,1,1,z,0,3.4208229,None,,,,,1,1,5,2,790.5206494,,790.5085269,790.5206494,791.5190141,791.5190141,791.5190141,791.5190141,791.5190141,792.5198774,792.5198774,795.9418476,,,,,z,0,3.4208229,None,1,1,2025-10-02_19h29.32.885,Motor Sequence,,2025.1.1,59.93770076,2025-10-02 19h30.31.288865 +0530
-50,x,6,2,1,v,0,0.8187928,None,,,,,1,2,6,0,795.9528224,,795.9422086,795.9528224,796.9522779,796.9522779,796.9522779,796.9522779,796.9522779,797.9521933,797.9521933,798.7745184,,,,,v,0,0.8187928,None,1,1,2025-10-02_19h29.32.885,Motor Sequence,,2025.1.1,59.93770076,2025-10-02 19h30.31.288865 +0530
150,v,7,3,1,c,0,1.4811079,None,,,,,1,3,7,1,798.7866459,,798.7748679,798.7866459,799.7865121,799.7865121,799.7865121,799.7865121,799.7865121,800.7864693,800.7864693,802.2753211,,,,,c,0,1.4811079,None,1,1,2025-10-02_19h29.32.885,Motor Sequence,,2025.1.1,59.93770076,2025-10-02 19h30.31.288865 +0530
50,c,8,0,2,z,0,1.7842182,None,,,,,2,0,8,2,802.286224,,802.2757568,802.286224,803.2865016,803.2865016,803.2865016,803.2865016,803.2865016,804.2848319,804.2848319,806.0752006,,,,,z,0,1.7842182,None,1,1,2025-10-02_19h29.32.885,Motor Sequence,,2025.1.1,59.93770076,2025-10-02 19h30.31.288865 +0530
-150,z,9,1,2,c,0,0.5042045,None,,,,,2,1,9,3,806.0865001,,806.0755713,806.0865001,807.0860344,807.0860344,807.0860344,807.0860344,807.0860344,808.0858255,808.0858255,808.5905611,,,,,c,0,0.5042045,None,1,1,2025-10-02_19h29.32.885,Motor Sequence,,2025.1.1,59.93770076,2025-10-02 19h30.31.288865 +0530
-50,x,10,2,2,v,0,0.531718,None,,,,,2,2,10,0,808.6032976,,808.5909114,808.6032976,809.6031368,809.6031368,809.6031368,809.6031368,809.6031368,810.6034205,810.6034205,811.1400651,,,,,v,0,0.531718,None,1,1,2025-10-02_19h29.32.885,Motor Sequence,,2025.1.1,59.93770076,2025-10-02 19h30.31.288865 +0530
150,v,11,3,2,c,0,1.9828267,None,,,,,2,3,11,1,811.1532032,,811.1405556,811.1532032,812.1533018,812.1533018,812.1533018,812.1533018,812.1533018,813.1522607,813.1522607,815.1410647,,,,,c,0,1.9828267,None,1,1,2025-10-02_19h29.32.885,Motor Sequence,,2025.1.1,59.93770076,2025-10-02 19h30.31.288865 +0530
150,v,12,0,3,c,0,1.1674398,None,,,,,3,0,12,1,815.1531193,,815.1414325,815.1531193,816.1534435,816.1534435,816.1534435,816.1534435,816.1534435,817.1527132,817.1527132,818.3264441,,,,,c,0,1.1674398,None,1,1,2025-10-02_19h29.32.885,Motor Sequence,,2025.1.1,59.93770076,2025-10-02 19h30.31.288865 +0530
50,c,13,1,3,c,1,1.7735302,None,,,,,3,1,13,2,818.3363781,,818.3268113,818.3363781,819.3364785,819.3364785,819.3364785,819.3364785,819.3364785,820.3359951,820.3359951,822.1243065,,,,,c,1,1.7735302,None,1,1,2025-10-02_19h29.32.885,Motor Sequence,,2025.1.1,59.93770076,2025-10-02 19h30.31.288865 +0530
-150,z,14,2,3,x,0,1.085674,None,,,,,3,2,14,3,822.1360019,,822.1247307,822.1360019,823.1352808,823.1352808,823.1352808,823.1352808,823.1352808,824.1357023,824.1357023,825.2239685,,,,,x,0,1.085674,None,1,1,2025-10-02_19h29.32.885,Motor Sequence,,2025.1.1,59.93770076,2025-10-02 19h30.31.288865 +0530
-50,x,15,3,3,v,0,0.8632847,None,,,,,3,3,15,0,825.236165,,825.2242765,825.236165,826.2361071,826.2361071,826.2361071,826.2361071,826.2361071,827.2360113,827.2360113,828.1048446,,,,,v,0,0.8632847,None,1,1,2025-10-02_19h29.32.885,Motor Sequence,,2025.1.1,59.93770076,2025-10-02 19h30.31.288865 +0530
150,v,16,0,4,c,0,0.9549519,None,,,,,4,0,16,1,828.1200039,,828.1051084,828.1200039,829.119352,829.119352,829.119352,829.119352,829.119352,830.1188378,830.1188378,831.0745658,,,,,c,0,0.9549519,None,1,1,2025-10-02_19h29.32.885,Motor Sequence,,2025.1.1,59.93770076,2025-10-02 19h30.31.288865 +0530
-150,z,17,1,4,x,0,1.0295964,None,,,,,4,1,17,3,831.0860038,,831.0749627,831.0860038,832.0863412,832.0863412,832.0863412,832.0863412,832.0863412,833.0862436,833.0862436,834.1234868,,,,,x,0,1.0295964,None,1,1,2025-10-02_19h29.32.885,Motor Sequence,,2025.1.1,59.93770076,2025-10-02 19h30.31.288865 +0530
50,c,18,2,4,z,0,1.0131904,None,,,,,4,2,18,2,834.1360113,,834.123861,834.1360113,835.1359226,835.1359226,835.1359226,835.1359226,835.1359226,836.1361764,836.1361764,837.1558853,,,,,z,0,1.0131904,None,1,1,2025-10-02_19h29.32.885,Motor Sequence,,2025.1.1,59.93770076,2025-10-02 19h30.31.288865 +0530
-50,x,19,3,4,v,0,1.0275801,None,,,,,4,3,19,0,837.1689206,,837.156213,837.1689206,838.1700288,838.1700288,838.1700288,838.1700288,838.1700288,839.1692859,839.1692859,840.2063539,,,,,v,0,1.0275801,None,1,1,2025-10-02_19h29.32.885,Motor Sequence,,2025.1.1,59.93770076,2025-10-02 19h30.31.288865 +0530
50,c,20,0,5,z,0,2.1695485,None,,,,,5,0,20,2,840.2193534,,840.2066766,840.2193534,841.2194676,841.2194676,841.2194676,841.2194676,841.2194676,842.2195437,842.2195437,844.4056127,,,,,z,0,2.1695485,None,1,1,2025-10-02_19h29.32.885,Motor Sequence,,2025.1.1,59.93770076,2025-10-02 19h30.31.288865 +0530
150,v,21,1,5,c,0,1.4675625,None,,,,,5,1,21,1,844.4191805,,844.4059505,844.4191805,845.4192215,845.4192215,845.4192215,845.4192215,845.4192215,846.4190513,846.4190513,847.8908091,,,,,c,0,1.4675625,None,1,1,2025-10-02_19h29.32.885,Motor Sequence,,2025.1.1,59.93770076,2025-10-02 19h30.31.288865 +0530
-50,x,22,2,5,v,0,1.4142111,None,,,,,5,2,22,0,847.9038856,,847.89117,847.9038856,848.9028161,848.9028161,848.9028161,848.9028161,848.9028161,849.9023418,849.9023418,851.3228873,,,,,v,0,1.4142111,None,1,1,2025-10-02_19h29.32.885,Motor Sequence,,2025.1.1,59.93770076,2025-10-02 19h30.31.288865 +0530
-150,z,23,3,5,x,0,0.9504466,None,,,,,5,3,23,3,851.3361122,,851.3232068,851.3361122,852.3359425,852.3359425,852.3359425,852.3359425,852.3359425,853.3355707,853.3355707,854.2897814,,,,,x,0,0.9504466,None,1,1,2025-10-02_19h29.32.885,Motor Sequence,,2025.1.1,59.93770076,2025-10-02 19h30.31.288865 +0530
-50,x,24,0,6,v,0,1.0715897,None,,,,,6,0,24,0,854.3025798,,854.2900781,854.3025798,855.3015032,855.3015032,855.3015032,855.3015032,855.3015032,856.3016413,856.3016413,857.3737519,,,,,v,0,1.0715897,None,1,1,2025-10-02_19h29.32.885,Motor Sequence,,2025.1.1,59.93770076,2025-10-02 19h30.31.288865 +0530
-150,z,25,1,6,x,0,1.0817242,None,,,,,6,1,25,3,857.3860817,,857.3740933,857.3860817,858.3859051,858.3859051,858.3859051,858.3859051,858.3859051,859.3856134,859.3856134,860.473899,,,,,x,0,1.0817242,None,1,1,2025-10-02_19h29.32.885,Motor Sequence,,2025.1.1,59.93770076,2025-10-02 19h30.31.288865 +0530
50,c,26,2,6,z,0,1.806467,None,,,,,6,2,26,2,860.4857733,,860.4742066,860.4857733,861.485703,861.485703,861.485703,861.485703,861.485703,862.4863096,862.4863096,864.3051209,,,,,z,0,1.806467,None,1,1,2025-10-02_19h29.32.885,Motor Sequence,,2025.1.1,59.93770076,2025-10-02 19h30.31.288865 +0530
150,v,27,3,6,c,0,0.9845773,None,,,,,6,3,27,1,864.3188312,,864.3054152,864.3188312,865.3188027,865.3188027,865.3188027,865.3188027,865.3188027,866.3188555,866.3188555,867.3060648,,,,,c,0,0.9845773,None,1,1,2025-10-02_19h29.32.885,Motor Sequence,,2025.1.1,59.93770076,2025-10-02 19h30.31.288865 +0530
50,c,28,0,7,z,0,1.4693929,None,,,,,7,0,28,2,867.318506,,867.3063444,867.318506,868.318571,868.318571,868.318571,868.318571,868.318571,869.3186061,869.3186061,870.791586,,,,,z,0,1.4693929,None,1,1,2025-10-02_19h29.32.885,Motor Sequence,,2025.1.1,59.93770076,2025-10-02 19h30.31.288865 +0530
-150,z,29,1,7,x,0,1.4633547,None,,,,,7,1,29,3,870.8025949,,870.7919161,870.8025949,871.8024325,871.8024325,871.8024325,871.8024325,871.8024325,872.8020426,872.8020426,874.2693766,,,,,x,0,1.4633547,None,1,1,2025-10-02_19h29.32.885,Motor Sequence,,2025.1.1,59.93770076,2025-10-02 19h30.31.288865 +0530
150,v,30,2,7,c,0,1.7061235,None,,,,,7,2,30,1,874.284163,,874.2696231,874.284163,875.2687752,875.2687752,875.2687752,875.2687752,875.2849224,876.2839299,876.2839299,878.0023624,,,,,c,0,1.7061235,None,1,1,2025-10-02_19h29.32.885,Motor Sequence,,2025.1.1,59.93770076,2025-10-02 19h30.31.288865 +0530
-50,x,31,3,7,v,0,1.718649,None,,,,,7,3,31,0,878.0184467,,878.0025536,878.0184467,879.0029811,879.0029811,879.0029811,879.0029811,879.0185405,880.0020988,880.0020988,881.7239228,,,,,v,0,1.718649,None,1,1,2025-10-02_19h29.32.885,Motor Sequence,,2025.1.1,59.93770076,2025-10-02 19h30.31.288865 +0530
-150,z,32,0,8,x,0,2.2507831,None,,,,,8,0,32,3,881.7352849,,881.7244527,881.7352849,882.7353008,882.7353008,882.7353008,882.7353008,882.7353008,883.735451,883.735451,885.9895657,,,,,x,0,2.2507831,None,1,1,2025-10-02_19h29.32.885,Motor Sequence,,2025.1.1,59.93770076,2025-10-02 19h30.31.288865 +0530
150,v,33,1,8,c,0,2.7781711,None,,,,,8,1,33,1,886.0015619,,885.9898874,886.0015619,887.0017441,887.0017441,887.0017441,887.0017441,887.0017441,888.0019774,888.0019774,890.7881716,,,,,c,0,2.7781711,None,1,1,2025-10-02_19h29.32.885,Motor Sequence,,2025.1.1,59.93770076,2025-10-02 19h30.31.288865 +0530
-50,x,34,2,8,v,0,1.1243942,None,,,,,8,2,34,0,890.802363,,890.7884397,890.802363,891.8018826,891.8018826,891.8018826,891.8018826,891.8018826,892.801634,892.801634,893.9388459,,,,,v,0,1.1243942,None,1,1,2025-10-02_19h29.32.885,Motor Sequence,,2025.1.1,59.93770076,2025-10-02 19h30.31.288865 +0530
50,c,35,3,8,z,0,1.2010742,None,,,,,8,3,35,2,893.9530849,,893.9391624,893.9530849,894.9515563,894.9515563,894.9515563,894.9515563,894.9680821,895.951863,895.951863,897.1565177,,,,,z,0,1.2010742,None,1,1,2025-10-02_19h29.32.885,Motor Sequence,,2025.1.1,59.93770076,2025-10-02 19h30.31.288865 +0530
-150,z,36,0,9,x,0,0.8506717,None,,,,,9,0,36,3,897.1687168,,897.1568331,897.1687168,898.1687793,898.1687793,898.1687793,898.1687793,898.1687793,899.1676311,899.1676311,900.0232932,,,,,x,0,0.8506717,None,1,1,2025-10-02_19h29.32.885,Motor Sequence,,2025.1.1,59.93770076,2025-10-02 19h30.31.288865 +0530
50,c,37,1,9,z,0,1.082914,None,,,,,9,1,37,2,900.034724,,900.0236239,900.034724,901.0350262,901.0350262,901.0350262,901.0350262,901.0350262,902.0349928,902.0349928,903.1222741,,,,,z,0,1.082914,None,1,1,2025-10-02_19h29.32.885,Motor Sequence,,2025.1.1,59.93770076,2025-10-02 19h30.31.288865 +0530
-50,x,38,2,9,v,0,1.0362051,None,,,,,9,2,38,0,903.1338233,,903.1225426,903.1338233,904.1353969,904.1353969,904.1353969,904.1353969,904.1353969,905.1353407,905.1353407,906.1736933,,,,,v,0,1.0362051,None,1,1,2025-10-02_19h29.32.885,Motor Sequence,,2025.1.1,59.93770076,2025-10-02 19h30.31.288865 +0530
150,v,39,3,9,c,0,1.1138039,None,,,,,9,3,39,1,906.1851281,,906.1740534,906.1851281,907.1850172,907.1850172,907.1850172,907.1850172,907.1850172,908.185463,908.185463,909.3053472,,,,,c,0,1.1138039,None,1,1,2025-10-02_19h29.32.885,Motor Sequence,,2025.1.1,59.93770076,2025-10-02 19h30.31.288865 +0530
-150,z,40,0,10,x,0,0.6610937,None,,,,,10,0,40,3,909.318913,,909.3057288,909.318913,910.318711,910.318711,910.318711,910.318711,910.318711,911.3180501,911.3180501,911.9888254,,,,,x,0,0.6610937,None,1,1,2025-10-02_19h29.32.885,Motor Sequence,,2025.1.1,59.93770076,2025-10-02 19h30.31.288865 +0530
150,v,41,1,10,c,0,1.1442418,None,,,,,10,1,41,1,912.0021578,,911.9892764,912.0021578,913.0019925,913.0019925,913.0019925,913.0019925,913.0019925,914.0018242,914.0018242,915.1541458,,,,,c,0,1.1442418,None,1,1,2025-10-02_19h29.32.885,Motor Sequence,,2025.1.1,59.93770076,2025-10-02 19h30.31.288865 +0530
50,c,42,2,10,z,0,1.9187123,None,,,,,10,2,42,2,915.1697419,,915.1544946,915.1697419,916.1688196,916.1688196,916.1688196,916.1688196,916.1856794,917.1686615,917.1686615,919.0893325,,,,,z,0,1.9187123,None,1,1,2025-10-02_19h29.32.885,Motor Sequence,,2025.1.1,59.93770076,2025-10-02 19h30.31.288865 +0530
-50,x,43,3,10,v,0,1.3182736,None,,,,,10,3,43,0,919.1016471,,919.0896347,919.1016471,920.1019035,920.1019035,920.1019035,920.1019035,920.1019035,921.101357,921.101357,922.4226476,,,,,v,0,1.3182736,None,1,1,2025-10-02_19h29.32.885,Motor Sequence,,2025.1.1,59.93770076,2025-10-02 19h30.31.288865 +0530
50,c,44,0,11,z,0,1.5662388,None,,,,,11,0,44,2,922.4352917,,922.4229468,922.4352917,923.435146,923.435146,923.435146,923.435146,923.435146,924.4348303,924.4348303,926.0057461,,,,,z,0,1.5662388,None,1,1,2025-10-02_19h29.32.885,Motor Sequence,,2025.1.1,59.93770076,2025-10-02 19h30.31.288865 +0530
-50,x,45,1,11,v,0,1.2286577,None,,,,,11,1,45,0,926.01833,,926.0060666,926.01833,927.0180773,927.0180773,927.0180773,927.0180773,927.0180773,928.0189754,928.0189754,929.2545462,,,,,v,0,1.2286577,None,1,1,2025-10-02_19h29.32.885,Motor Sequence,,2025.1.1,59.93770076,2025-10-02 19h30.31.288865 +0530
-150,z,46,2,11,x,0,3.377066,None,,,,,11,2,46,3,929.2682336,,929.2548534,929.2682336,930.2681083,930.2681083,930.2681083,930.2681083,930.2681083,931.2682994,931.2682994,934.6544822,,,,,x,0,3.377066,None,1,1,2025-10-02_19h29.32.885,Motor Sequence,,2025.1.1,59.93770076,2025-10-02 19h30.31.288865 +0530
150,v,47,3,11,c,0,1.2532643,None,,,,,11,3,47,1,934.6678886,,934.6547742,934.6678886,935.6679852,935.6679852,935.6679852,935.6679852,935.6679852,936.6679232,936.6679232,937.9234212,,,,,c,0,1.2532643,None,1,1,2025-10-02_19h29.32.885,Motor Sequence,,2025.1.1,59.93770076,2025-10-02 19h30.31.288865 +0530
-150,z,48,0,12,x,0,0.8679031,None,,,,,12,0,48,3,937.93506,,937.9237493,937.93506,938.934241,938.934241,938.934241,938.934241,938.934241,939.9343415,939.9343415,940.8057636,,,,,x,0,0.8679031,None,1,1,2025-10-02_19h29.32.885,Motor Sequence,,2025.1.1,59.93770076,2025-10-02 19h30.31.288865 +0530
50,c,49,1,12,z,0,1.0723743,None,,,,,12,1,49,2,940.8181392,,940.8060727,940.8181392,941.8178225,941.8178225,941.8178225,941.8178225,941.8178225,942.8176494,942.8176494,943.8904813,,,,,z,0,1.0723743,None,1,1,2025-10-02_19h29.32.885,Motor Sequence,,2025.1.1,59.93770076,2025-10-02 19h30.31.288865 +0530
150,v,50,2,12,c,0,1.3563723,None,,,,,12,2,50,1,943.9016352,,943.8908059,943.9016352,944.9011856,944.9011856,944.9011856,944.9011856,944.9011856,945.9013043,945.9013043,947.2715342,,,,,c,0,1.3563723,None,1,1,2025-10-02_19h29.32.885,Motor Sequence,,2025.1.1,59.93770076,2025-10-02 19h30.31.288865 +0530
-50,x,51,3,12,v,0,1.0046858,None,,,,,12,3,51,0,947.2849241,,947.2718577,947.2849241,948.2847807,948.2847807,948.2847807,948.2847807,948.2847807,949.284671,949.284671,950.3035865,,,,,v,0,1.0046858,None,1,1,2025-10-02_19h29.32.885,Motor Sequence,,2025.1.1,59.93770076,2025-10-02 19h30.31.288865 +0530
-150,z,52,0,13,x,0,0.7523878,None,,,,,13,0,52,3,950.3177944,,950.3038407,950.3177944,951.3177522,951.3177522,951.3177522,951.3177522,951.3177522,952.3178496,952.3178496,953.0720347,,,,,x,0,0.7523878,None,1,1,2025-10-02_19h29.32.885,Motor Sequence,,2025.1.1,59.93770076,2025-10-02 19h30.31.288865 +0530
150,v,53,1,13,c,0,1.0355488,None,,,,,13,1,53,1,953.0846917,,953.0723313,953.0846917,954.084859,954.084859,954.084859,954.084859,954.084859,955.0845688,955.0845688,956.1218231,,,,,c,0,1.0355488,None,1,1,2025-10-02_19h29.32.885,Motor Sequence,,2025.1.1,59.93770076,2025-10-02 19h30.31.288865 +0530
50,c,54,2,13,z,0,4.0753093,None,,,,,13,2,54,2,956.1339235,,956.1222911,956.1339235,957.1345118,957.1345118,957.1345118,957.1345118,957.1345118,958.1348527,958.1348527,962.2206897,,,,,z,0,4.0753093,None,1,1,2025-10-02_19h29.32.885,Motor Sequence,,2025.1.1,59.93770076,2025-10-02 19h30.31.288865 +0530
-50,x,55,3,13,v,0,0.8569739,None,,,,,13,3,55,0,962.233957,,962.2209735,962.233957,963.2333732,963.2333732,963.2333732,963.2333732,963.2333732,964.2339594,964.2339594,965.1036351,,,,,v,0,0.8569739,None,1,1,2025-10-02_19h29.32.885,Motor Sequence,,2025.1.1,59.93770076,2025-10-02 19h30.31.288865 +0530
50,c,56,0,14,z,0,1.7122469,None,,,,,14,0,56,2,965.1175699,,965.1039195,965.1175699,966.1178599,966.1178599,966.1178599,966.1178599,966.1178599,967.1172109,967.1172109,968.8368982,,,,,z,0,1.7122469,None,1,1,2025-10-02_19h29.32.885,Motor Sequence,,2025.1.1,59.93770076,2025-10-02 19h30.31.288865 +0530
-150,z,57,1,14,x,0,0.8670022,None,,,,,14,1,57,3,968.8502588,,968.8371475,968.8502588,969.8501158,969.8501158,969.8501158,969.8501158,969.8501158,970.8509838,970.8509838,971.721647,,,,,x,0,0.8670022,None,1,1,2025-10-02_19h29.32.885,Motor Sequence,,2025.1.1,59.93770076,2025-10-02 19h30.31.288865 +0530
150,v,58,2,14,c,0,1.7839888,None,,,,,14,2,58,1,971.7339811,,971.7218951,971.7339811,972.736132,972.736132,972.736132,972.736132,972.736132,973.7347415,973.7347415,975.5204942,,,,,c,0,1.7839888,None,1,1,2025-10-02_19h29.32.885,Motor Sequence,,2025.1.1,59.93770076,2025-10-02 19h30.31.288865 +0530
-50,x,59,3,14,v,0,1.08601,None,,,,,14,3,59,0,975.53417,,975.5206988,975.53417,976.5345094,976.5345094,976.5345094,976.5345094,976.5345094,977.5341983,977.5341983,978.6234873,,,,,v,0,1.08601,None,1,1,2025-10-02_19h29.32.885,Motor Sequence,,2025.1.1,59.93770076,2025-10-02 19h30.31.288865 +0530
-50,x,60,0,15,v,0,1.0246503,None,,,,,15,0,60,0,978.6350218,,978.6238611,978.6350218,979.6344008,979.6344008,979.6344008,979.6344008,979.6344008,980.634172,980.634172,981.6700819,,,,,v,0,1.0246503,None,1,1,2025-10-02_19h29.32.885,Motor Sequence,,2025.1.1,59.93770076,2025-10-02 19h30.31.288865 +0530
150,v,61,1,15,c,0,1.0050335,None,,,,,15,1,61,1,981.6833974,,981.6703411,981.6833974,982.6828934,982.6828934,982.6828934,982.6828934,982.6828934,983.6831356,983.6831356,984.7026468,,,,,c,0,1.0050335,None,1,1,2025-10-02_19h29.32.885,Motor Sequence,,2025.1.1,59.93770076,2025-10-02 19h30.31.288865 +0530
-150,z,62,2,15,x,0,0.9416229,None,,,,,15,2,62,3,984.717555,,984.7028489,984.717555,985.7176652,985.7176652,985.7176652,985.7176652,985.7176652,986.716793,986.716793,987.6704544,,,,,x,0,0.9416229,None,1,1,2025-10-02_19h29.32.885,Motor Sequence,,2025.1.1,59.93770076,2025-10-02 19h30.31.288865 +0530
50,c,63,3,15,x,0,0.8524949,None,,,,,15,3,63,2,987.6845054,,987.6706734,987.6845054,988.6840785,988.6840785,988.6840785,988.6840785,988.6840785,989.6844454,989.6844454,990.53783,,,,,x,0,0.8524949,None,1,1,2025-10-02_19h29.32.885,Motor Sequence,,2025.1.1,59.93770076,2025-10-02 19h30.31.288865 +0530
-150,z,64,0,16,x,0,0.7527156,None,,,,,16,0,64,3,990.5515045,,990.5380489,990.5515045,991.5502484,991.5502484,991.5502484,991.5502484,991.5502484,992.5507897,992.5507897,993.3044033,,,,,x,0,0.7527156,None,1,1,2025-10-02_19h29.32.885,Motor Sequence,,2025.1.1,59.93770076,2025-10-02 19h30.31.288865 +0530
50,c,65,1,16,z,0,1.5775957,None,,,,,16,1,65,2,993.3180204,,993.3046857,993.3180204,994.3190318,994.3190318,994.3190318,994.3190318,994.3190318,995.3179283,995.3179283,996.9027196,,,,,z,0,1.5775957,None,1,1,2025-10-02_19h29.32.885,Motor Sequence,,2025.1.1,59.93770076,2025-10-02 19h30.31.288865 +0530
150,v,66,2,16,c,0,2.8827293,None,,,,,16,2,66,1,996.9167838,,996.9029297,996.9167838,997.9164369,997.9164369,997.9164369,997.9164369,997.9164369,998.916772,998.916772,1001.803638,,,,,c,0,2.8827293,None,1,1,2025-10-02_19h29.32.885,Motor Sequence,,2025.1.1,59.93770076,2025-10-02 19h30.31.288865 +0530
-50,x,67,3,16,v,0,0.8341281,None,,,,,16,3,67,0,1001.816819,,1001.803861,1001.816819,1002.816742,1002.816742,1002.816742,1002.816742,1002.816742,1003.816742,1003.816742,1004.653664,,,,,v,0,0.8341281,None,1,1,2025-10-02_19h29.32.885,Motor Sequence,,2025.1.1,59.93770076,2025-10-02 19h30.31.288865 +0530
-150,z,68,0,17,x,0,0.9020166,None,,,,,17,0,68,3,1004.667565,,1004.653878,1004.667565,1005.666456,1005.666456,1005.666456,1005.666456,1005.666456,1006.667336,1006.667336,1007.570378,,,,,x,0,0.9020166,None,1,1,2025-10-02_19h29.32.885,Motor Sequence,,2025.1.1,59.93770076,2025-10-02 19h30.31.288865 +0530
50,c,69,1,17,v,0,1.7489635,None,,,,,17,1,69,2,1007.583578,,1007.570599,1007.583578,1008.584341,1008.584341,1008.584341,1008.584341,1008.584341,1009.583816,1009.583816,1011.338751,,,,,v,0,1.7489635,None,1,1,2025-10-02_19h29.32.885,Motor Sequence,,2025.1.1,59.93770076,2025-10-02 19h30.31.288865 +0530
-50,x,70,2,17,v,0,0.7173798,None,,,,,17,2,70,0,1011.350651,,1011.339081,1011.350651,1012.350868,1012.350868,1012.350868,1012.350868,1012.350868,1013.350424,1013.350424,1014.070473,,,,,v,0,0.7173798,None,1,1,2025-10-02_19h29.32.885,Motor Sequence,,2025.1.1,59.93770076,2025-10-02 19h30.31.288865 +0530
150,v,71,3,17,c,0,1.1895111,None,,,,,17,3,71,1,1014.084327,,1014.070686,1014.084327,1015.083402,1015.083402,1015.083402,1015.083402,1015.083402,1016.084518,1016.084518,1017.28613,,,,,c,0,1.1895111,None,1,1,2025-10-02_19h29.32.885,Motor Sequence,,2025.1.1,59.93770076,2025-10-02 19h30.31.288865 +0530
150,v,72,0,18,c,0,1.2509187,None,,,,,18,0,72,1,1017.300668,,1017.286335,1017.300668,1018.299495,1018.299495,1018.299495,1018.299495,1018.299495,1019.299836,1019.299836,1020.553092,,,,,c,0,1.2509187,None,1,1,2025-10-02_19h29.32.885,Motor Sequence,,2025.1.1,59.93770076,2025-10-02 19h30.31.288865 +0530
-150,z,73,1,18,x,0,0.9174248,None,,,,,18,1,73,3,1020.567108,,1020.553308,1020.567108,1021.567213,1021.567213,1021.567213,1021.567213,1021.567213,1022.567157,1022.567157,1023.486453,,,,,x,0,0.9174248,None,1,1,2025-10-02_19h29.32.885,Motor Sequence,,2025.1.1,59.93770076,2025-10-02 19h30.31.288865 +0530
-50,x,74,2,18,v,0,0.9049506,None,,,,,18,2,74,0,1023.499282,,1023.486664,1023.499282,1024.500001,1024.500001,1024.500001,1024.500001,1024.500001,1025.499359,1025.499359,1026.420269,,,,,v,0,0.9049506,None,1,1,2025-10-02_19h29.32.885,Motor Sequence,,2025.1.1,59.93770076,2025-10-02 19h30.31.288865 +0530
50,c,75,3,18,z,0,1.3275008,None,,,,,18,3,75,2,1026.433339,,1026.420535,1026.433339,1027.432964,1027.432964,1027.432964,1027.432964,1027.432964,1028.433574,1028.433574,1029.769059,,,,,z,0,1.3275008,None,1,1,2025-10-02_19h29.32.885,Motor Sequence,,2025.1.1,59.93770076,2025-10-02 19h30.31.288865 +0530
-150,z,76,0,19,x,0,0.779584,None,,,,,19,0,76,3,1029.783368,,1029.769266,1029.783368,1030.783841,1030.783841,1030.783841,1030.783841,1030.783841,1031.784502,1031.784502,1032.571297,,,,,x,0,0.779584,None,1,1,2025-10-02_19h29.32.885,Motor Sequence,,2025.1.1,59.93770076,2025-10-02 19h30.31.288865 +0530
150,v,77,1,19,c,0,0.972951,None,,,,,19,1,77,1,1032.583328,,1032.571632,1032.583328,1033.584104,1033.584104,1033.584104,1033.584104,1033.584104,1034.583206,1034.583206,1035.571047,,,,,c,0,0.972951,None,1,1,2025-10-02_19h29.32.885,Motor Sequence,,2025.1.1,59.93770076,2025-10-02 19h30.31.288865 +0530
50,c,78,2,19,v,0,0.764078,None,,,,,19,2,78,2,1035.583688,,1035.571358,1035.583688,1036.584104,1036.584104,1036.584104,1036.584104,1036.584104,1037.583661,1037.583661,1038.355532,,,,,v,0,0.764078,None,1,1,2025-10-02_19h29.32.885,Motor Sequence,,2025.1.1,59.93770076,2025-10-02 19h30.31.288865 +0530
-50,x,79,3,19,v,0,0.6879358,None,,,,,19,3,79,0,1038.36815,,1038.355865,1038.36815,1039.367442,1039.367442,1039.367442,1039.367442,1039.367442,1040.366698,1040.366698,1041.069603,,,,,v,0,0.6879358,None,1,1,2025-10-02_19h29.32.885,Motor Sequence,,2025.1.1,59.93770076,2025-10-02 19h30.31.288865 +0530
150,v,80,0,20,c,0,1.0397877,None,,,,,20,0,80,1,1041.083896,,1041.06989,1041.083896,1042.08349,1042.08349,1042.08349,1042.08349,1042.08349,1043.083985,1043.083985,1044.135295,,,,,c,0,1.0397877,None,1,1,2025-10-02_19h29.32.885,Motor Sequence,,2025.1.1,59.93770076,2025-10-02 19h30.31.288865 +0530
-150,z,81,1,20,x,0,0.7833193,None,,,,,20,1,81,3,1044.149659,,1044.135501,1044.149659,1045.148811,1045.148811,1045.148811,1045.148811,1045.148811,1046.1492,1046.1492,1046.937838,,,,,x,0,0.7833193,None,1,1,2025-10-02_19h29.32.885,Motor Sequence,,2025.1.1,59.93770076,2025-10-02 19h30.31.288865 +0530
-50,x,82,2,20,v,0,0.5656122,None,,,,,20,2,82,0,1046.949392,,1046.938061,1046.949392,1047.95117,1047.95117,1047.95117,1047.95117,1047.95117,1048.949353,1048.949353,1049.52147,,,,,v,0,0.5656122,None,1,1,2025-10-02_19h29.32.885,Motor Sequence,,2025.1.1,59.93770076,2025-10-02 19h30.31.288865 +0530
50,c,83,3,20,z,0,0.6866693,None,,,,,20,3,83,2,1049.533398,,1049.52181,1049.533398,1050.533193,1050.533193,1050.533193,1050.533193,1050.533193,1051.532931,1051.532931,1052.222621,,,,,z,0,0.6866693,None,1,1,2025-10-02_19h29.32.885,Motor Sequence,,2025.1.1,59.93770076,2025-10-02 19h30.31.288865 +0530
50,c,84,0,21,z,0,1.0415143,None,,,,,21,0,84,2,1052.233216,,1052.222991,1052.233216,1053.233996,1053.233996,1053.233996,1053.233996,1053.233996,1054.233217,1054.233217,1055.288767,,,,,z,0,1.0415143,None,1,1,2025-10-02_19h29.32.885,Motor Sequence,,2025.1.1,59.93770076,2025-10-02 19h30.31.288865 +0530
-150,z,85,1,21,x,0,0.9033827,None,,,,,21,1,85,3,1055.300261,,1055.28909,1055.300261,1056.299397,1056.299397,1056.299397,1056.299397,1056.299397,1057.300067,1057.300067,1058.204394,,,,,x,0,0.9033827,None,1,1,2025-10-02_19h29.32.885,Motor Sequence,,2025.1.1,59.93770076,2025-10-02 19h30.31.288865 +0530
150,v,86,2,21,c,0,0.8352419,None,,,,,21,2,86,1,1058.216616,,1058.204687,1058.216616,1059.216189,1059.216189,1059.216189,1059.216189,1059.216189,1060.216372,1060.216372,1061.055299,,,,,c,0,0.8352419,None,1,1,2025-10-02_19h29.32.885,Motor Sequence,,2025.1.1,59.93770076,2025-10-02 19h30.31.288865 +0530
-50,x,87,3,21,v,0,1.252602,None,,,,,21,3,87,0,1061.066486,,1061.055627,1061.066486,1062.067347,1062.067347,1062.067347,1062.067347,1062.067347,1063.067067,1063.067067,1064.322345,,,,,v,0,1.252602,None,1,1,2025-10-02_19h29.32.885,Motor Sequence,,2025.1.1,59.93770076,2025-10-02 19h30.31.288865 +0530
150,v,88,0,22,c,0,0.7877307,None,,,,,22,0,88,1,1064.334148,,1064.32267,1064.334148,1065.332732,1065.332732,1065.332732,1065.332732,1065.332732,1066.333267,1066.333267,1067.137255,,,,,c,0,0.7877307,None,1,1,2025-10-02_19h29.32.885,Motor Sequence,,2025.1.1,59.93770076,2025-10-02 19h30.31.288865 +0530
50,c,89,1,22,z,0,0.4731395,None,,,,,22,1,89,2,1067.150972,,1067.137616,1067.150972,1068.149435,1068.149435,1068.149435,1068.149435,1068.149435,1069.150644,1069.150644,1069.636634,,,,,z,0,0.4731395,None,1,1,2025-10-02_19h29.32.885,Motor Sequence,,2025.1.1,59.93770076,2025-10-02 19h30.31.288865 +0530
-150,z,90,2,22,x,0,0.3256452,None,,,,,22,2,90,3,1069.650246,,1069.636999,1069.650246,1070.649729,1070.649729,1070.649729,1070.649729,1070.649729,1071.650316,1071.650316,1071.986894,,,,,x,0,0.3256452,None,1,1,2025-10-02_19h29.32.885,Motor Sequence,,2025.1.1,59.93770076,2025-10-02 19h30.31.288865 +0530
-50,x,91,3,22,v,0,0.2665891,None,,,,,22,3,91,0,1072.00094,,1071.987241,1072.00094,1073.000485,1073.000485,1073.000485,1073.000485,1073.000485,1074.000268,1074.000268,1074.271299,,,,,v,0,0.2665891,None,1,1,2025-10-02_19h29.32.885,Motor Sequence,,2025.1.1,59.93770076,2025-10-02 19h30.31.288865 +0530
50,c,92,0,23,z,0,0.6856644,None,,,,,23,0,92,2,1074.284034,,1074.271653,1074.284034,1075.28365,1075.28365,1075.28365,1075.28365,1075.28365,1076.28309,1076.28309,1076.971783,,,,,z,0,0.6856644,None,1,1,2025-10-02_19h29.32.885,Motor Sequence,,2025.1.1,59.93770076,2025-10-02 19h30.31.288865 +0530
150,v,93,1,23,c,0,0.302186,None,,,,,23,1,93,1,1076.983596,,1076.972116,1076.983596,1077.983433,1077.983433,1077.983433,1077.983433,1077.983433,1078.983336,1078.983336,1079.287312,,,,,c,0,0.302186,None,1,1,2025-10-02_19h29.32.885,Motor Sequence,,2025.1.1,59.93770076,2025-10-02 19h30.31.288865 +0530
-50,x,94,2,23,v,0,1.4565526,None,,,,,23,2,94,0,1079.299404,,1079.287583,1079.299404,1080.299749,1080.299749,1080.299749,1080.299749,1080.299749,1081.299375,1081.299375,1082.770508,,,,,v,0,1.4565526,None,1,1,2025-10-02_19h29.32.885,Motor Sequence,,2025.1.1,59.93770076,2025-10-02 19h30.31.288865 +0530
-150,z,95,3,23,z,1,0.7935867,None,,,,,23,3,95,3,1082.784005,,1082.77084,1082.784005,1083.783105,1083.783105,1083.783105,1083.783105,1083.783105,1084.783506,1084.783506,1085.586646,,,,,z,1,0.7935867,None,1,1,2025-10-02_19h29.32.885,Motor Sequence,,2025.1.1,59.93770076,2025-10-02 19h30.31.288865 +0530
-50,x,96,0,24,v,0,0.7558309,None,,,,,24,0,96,0,1085.599977,,1085.586995,1085.599977,1086.599758,1086.599758,1086.599758,1086.599758,1086.599758,1087.599752,1087.599752,1088.369816,,,,,v,0,0.7558309,None,1,1,2025-10-02_19h29.32.885,Motor Sequence,,2025.1.1,59.93770076,2025-10-02 19h30.31.288865 +0530
-150,z,97,1,24,x,0,0.6333458,None,,,,,24,1,97,3,1088.383318,,1088.370161,1088.383318,1089.383782,1089.383782,1089.383782,1089.383782,1089.383782,1090.382826,1090.382826,1091.018261,,,,,x,0,0.6333458,None,1,1,2025-10-02_19h29.32.885,Motor Sequence,,2025.1.1,59.93770076,2025-10-02 19h30.31.288865 +0530
50,c,98,2,24,z,0,1.1909376,None,,,,,24,2,98,2,1091.032644,,1091.018462,1091.032644,1092.032125,1092.032125,1092.032125,1092.032125,1092.032125,1093.033899,1093.033899,1094.236075,,,,,z,0,1.1909376,None,1,1,2025-10-02_19h29.32.885,Motor Sequence,,2025.1.1,59.93770076,2025-10-02 19h30.31.288865 +0530
150,v,99,3,24,c,0,0.676214,None,,,,,24,3,99,1,1094.250019,,1094.236372,1094.250019,1095.250264,1095.250264,1095.250264,1095.250264,1095.250264,1096.249537,1096.249537,1096.936783,,,,,c,0,0.676214,None,1,1,2025-10-02_19h29.32.885,Motor Sequence,,2025.1.1,59.93770076,2025-10-02 19h30.31.288865 +0530
-150,z,100,0,25,x,0,0.3505235,None,,,,,25,0,100,3,1096.949692,,1096.937062,1096.949692,1097.948636,1097.948636,1097.948636,1097.948636,1097.948636,1098.948629,1098.948629,1099.307938,,,,,x,0,0.3505235,None,1,1,2025-10-02_19h29.32.885,Motor Sequence,,2025.1.1,59.93770076,2025-10-02 19h30.31.288865 +0530
-50,x,101,1,25,v,0,0.5681965,None,,,,,25,1,101,0,1099.315722,,1099.308215,1099.315722,1100.316167,1100.316167,1100.316167,1100.316167,1100.316167,1101.316659,1101.316659,1101.887271,,,,,v,0,0.5681965,None,1,1,2025-10-02_19h29.32.885,Motor Sequence,,2025.1.1,59.93770076,2025-10-02 19h30.31.288865 +0530
150,v,102,2,25,c,0,0.6267033,None,,,,,25,2,102,1,1101.899922,,1101.887565,1101.899922,1102.899789,1102.899789,1102.899789,1102.899789,1102.899789,1103.900066,1103.900066,1104.535178,,,,,c,0,0.6267033,None,1,1,2025-10-02_19h29.32.885,Motor Sequence,,2025.1.1,59.93770076,2025-10-02 19h30.31.288865 +0530
50,c,103,3,25,z,0,0.3378105,None,,,,,25,3,103,2,1104.550026,,1104.535447,1104.550026,1105.549163,1105.549163,1105.549163,1105.549163,1105.549163,1106.549919,1106.549919,1106.889354,,,,,z,0,0.3378105,None,1,1,2025-10-02_19h29.32.885,Motor Sequence,,2025.1.1,59.93770076,2025-10-02 19h30.31.288865 +0530
50,c,104,0,26,z,0,0.7296042,None,,,,,26,0,104,2,1106.899003,,1106.889625,1106.899003,1107.89933,1107.89933,1107.89933,1107.89933,1107.89933,1108.899719,1108.899719,1109.63942,,,,,z,0,0.7296042,None,1,1,2025-10-02_19h29.32.885,Motor Sequence,,2025.1.1,59.93770076,2025-10-02 19h30.31.288865 +0530
-50,x,105,1,26,v,0,0.7572591,None,,,,,26,1,105,0,1109.650368,,1109.639861,1109.650368,1110.650147,1110.650147,1110.650147,1110.650147,1110.665751,1111.649768,1111.649768,1112.420705,,,,,v,0,0.7572591,None,1,1,2025-10-02_19h29.32.885,Motor Sequence,,2025.1.1,59.93770076,2025-10-02 19h30.31.288865 +0530
150,v,106,2,26,c,0,0.7969628,None,,,,,26,2,106,1,1112.433407,,1112.421062,1112.433407,1113.433267,1113.433267,1113.433267,1113.433267,1113.433267,1114.432523,1114.432523,1115.238053,,,,,c,0,0.7969628,None,1,1,2025-10-02_19h29.32.885,Motor Sequence,,2025.1.1,59.93770076,2025-10-02 19h30.31.288865 +0530
-150,z,107,3,26,z,1,0.6962238,None,,,,,26,3,107,3,1115.249724,,1115.238373,1115.249724,1116.249921,1116.249921,1116.249921,1116.249921,1116.249921,1117.250297,1117.250297,1117.954565,,,,,z,1,0.6962238,None,1,1,2025-10-02_19h29.32.885,Motor Sequence,,2025.1.1,59.93770076,2025-10-02 19h30.31.288865 +0530
-50,x,108,0,27,x,1,1.3631596,None,,,,,27,0,108,0,1117.966454,,1117.954916,1117.966454,1118.965863,1118.965863,1118.965863,1118.965863,1118.965863,1119.966859,1119.966859,1121.338147,,,,,x,1,1.3631596,None,1,1,2025-10-02_19h29.32.885,Motor Sequence,,2025.1.1,59.93770076,2025-10-02 19h30.31.288865 +0530
-150,z,109,1,27,x,0,1.250661,None,,,,,27,1,109,3,1121.34995,,1121.338532,1121.34995,1122.348785,1122.348785,1122.348785,1122.348785,1122.348785,1123.34935,1123.34935,1124.603945,,,,,x,0,1.250661,None,1,1,2025-10-02_19h29.32.885,Motor Sequence,,2025.1.1,59.93770076,2025-10-02 19h30.31.288865 +0530
150,v,110,2,27,c,0,0.5477001,None,,,,,27,2,110,1,1124.616437,,1124.60426,1124.616437,1125.615898,1125.615898,1125.615898,1125.615898,1125.615898,1126.616053,1126.616053,1127.169875,,,,,c,0,0.5477001,None,1,1,2025-10-02_19h29.32.885,Motor Sequence,,2025.1.1,59.93770076,2025-10-02 19h30.31.288865 +0530
50,c,111,3,27,z,0,2.1421342,None,,,,,27,3,111,2,1127.183155,,1127.170167,1127.183155,1128.182228,1128.182228,1128.182228,1128.182228,1128.182228,1129.182802,1129.182802,1131.335322,,,,,z,0,2.1421342,None,1,1,2025-10-02_19h29.32.885,Motor Sequence,,2025.1.1,59.93770076,2025-10-02 19h30.31.288865 +0530
50,c,112,0,28,z,0,1.8876275,None,,,,,28,0,112,2,1131.349578,,1131.335605,1131.349578,1132.349261,1132.349261,1132.349261,1132.349261,1132.349261,1133.349184,1133.349184,1135.237568,,,,,z,0,1.8876275,None,1,1,2025-10-02_19h29.32.885,Motor Sequence,,2025.1.1,59.93770076,2025-10-02 19h30.31.288865 +0530
150,v,113,1,28,c,0,1.3348632,None,,,,,28,1,113,1,1135.249602,,1135.237904,1135.249602,1136.248095,1136.248095,1136.248095,1136.248095,1136.264203,1137.249275,1137.249275,1138.587458,,,,,c,0,1.3348632,None,1,1,2025-10-02_19h29.32.885,Motor Sequence,,2025.1.1,59.93770076,2025-10-02 19h30.31.288865 +0530
-150,z,114,2,28,x,0,0.2994843,None,,,,,28,2,114,3,1138.599499,,1138.587797,1138.599499,1139.598966,1139.598966,1139.598966,1139.598966,1139.598966,1140.598901,1140.598901,1140.903812,,,,,x,0,0.2994843,None,1,1,2025-10-02_19h29.32.885,Motor Sequence,,2025.1.1,59.93770076,2025-10-02 19h30.31.288865 +0530
-50,x,115,3,28,v,0,0.5908359,None,,,,,28,3,115,0,1140.916086,,1140.904108,1140.916086,1141.916437,1141.916437,1141.916437,1141.916437,1141.916437,1142.915632,1142.915632,1143.518353,,,,,v,0,0.5908359,None,1,1,2025-10-02_19h29.32.885,Motor Sequence,,2025.1.1,59.93770076,2025-10-02 19h30.31.288865 +0530
50,c,116,0,29,z,0,0.4928017,None,,,,,29,0,116,2,1143.531998,,1143.51856,1143.531998,1144.533032,1144.533032,1144.533032,1144.533032,1144.533032,1145.53294,1145.53294,1146.035281,,,,,z,0,0.4928017,None,1,1,2025-10-02_19h29.32.885,Motor Sequence,,2025.1.1,59.93770076,2025-10-02 19h30.31.288865 +0530
-150,z,117,1,29,x,0,0.8439284,None,,,,,29,1,117,3,1146.049382,,1146.035586,1146.049382,1147.049442,1147.049442,1147.049442,1147.049442,1147.049442,1148.04936,1148.04936,1148.902636,,,,,x,0,0.8439284,None,1,1,2025-10-02_19h29.32.885,Motor Sequence,,2025.1.1,59.93770076,2025-10-02 19h30.31.288865 +0530
-50,x,118,2,29,v,0,0.798854,None,,,,,29,2,118,0,1148.916332,,1148.902865,1148.916332,1149.91606,1149.91606,1149.91606,1149.91606,1149.91606,1150.914075,1150.914075,1151.720475,,,,,v,0,0.798854,None,1,1,2025-10-02_19h29.32.885,Motor Sequence,,2025.1.1,59.93770076,2025-10-02 19h30.31.288865 +0530
150,v,119,3,29,c,0,1.8702547,None,,,,,29,3,119,1,1151.731692,,1151.72083,1151.731692,1152.732873,1152.732873,1152.732873,1152.732873,1152.732873,1153.732927,1153.732927,1155.603991,,,,,c,0,1.8702547,None,1,1,2025-10-02_19h29.32.885,Motor Sequence,,2025.1.1,59.93770076,2025-10-02 19h30.31.288865 +0530
-150,z,120,0,30,x,0,0.394201,None,,,,,30,0,120,3,1155.616006,,1155.604331,1155.616006,1156.61725,1156.61725,1156.61725,1156.61725,1156.61725,1157.615519,1157.615519,1158.01865,,,,,x,0,0.394201,None,1,1,2025-10-02_19h29.32.885,Motor Sequence,,2025.1.1,59.93770076,2025-10-02 19h30.31.288865 +0530
50,c,121,1,30,z,0,1.2486465,None,,,,,30,1,121,2,1158.032694,,1158.018944,1158.032694,1159.031863,1159.031863,1159.031863,1159.031863,1159.048778,1160.031549,1160.031549,1161.28705,,,,,z,0,1.2486465,None,1,1,2025-10-02_19h29.32.885,Motor Sequence,,2025.1.1,59.93770076,2025-10-02 19h30.31.288865 +0530
150,v,122,2,30,c,0,2.03358,None,,,,,30,2,122,1,1161.299666,,1161.287392,1161.299666,1162.298549,1162.298549,1162.298549,1162.298549,1162.298549,1163.299288,1163.299288,1165.336375,,,,,c,0,2.03358,None,1,1,2025-10-02_19h29.32.885,Motor Sequence,,2025.1.1,59.93770076,2025-10-02 19h30.31.288865 +0530
-50,x,123,3,30,v,0,1.3489581,None,,,,,30,3,123,0,1165.348737,,1165.33688,1165.348737,1166.348983,1166.348983,1166.348983,1166.348983,1166.348983,1167.348575,1167.348575,1168.703517,,,,,v,0,1.3489581,None,1,1,2025-10-02_19h29.32.885,Motor Sequence,,2025.1.1,59.93770076,2025-10-02 19h30.31.288865 +0530
-150,z,124,0,31,x,0,0.8246201,None,,,,,31,0,124,3,1168.715541,,1168.703799,1168.715541,1169.715391,1169.715391,1169.715391,1169.715391,1169.715391,1170.715637,1170.715637,1171.552355,,,,,x,0,0.8246201,None,1,1,2025-10-02_19h29.32.885,Motor Sequence,,2025.1.1,59.93770076,2025-10-02 19h30.31.288865 +0530
150,v,125,1,31,c,0,0.7147967,None,,,,,31,1,125,1,1171.566525,,1171.552665,1171.566525,1172.565684,1172.565684,1172.565684,1172.565684,1172.565684,1173.565828,1173.565828,1174.285734,,,,,c,0,0.7147967,None,1,1,2025-10-02_19h29.32.885,Motor Sequence,,2025.1.1,59.93770076,2025-10-02 19h30.31.288865 +0530
50,c,126,2,31,z,0,1.3959535,None,,,,,31,2,126,2,1174.298728,,1174.286043,1174.298728,1175.29832,1175.29832,1175.29832,1175.29832,1175.29832,1176.297864,1176.297864,1177.701455,,,,,z,0,1.3959535,None,1,1,2025-10-02_19h29.32.885,Motor Sequence,,2025.1.1,59.93770076,2025-10-02 19h30.31.288865 +0530
-50,x,127,3,31,v,0,1.3160581,None,,,,,31,3,127,0,1177.715914,,1177.70172,1177.715914,1178.715019,1178.715019,1178.715019,1178.715019,1178.715019,1179.714735,1179.714735,1181.034509,,,,,v,0,1.3160581,None,1,1,2025-10-02_19h29.32.885,Motor Sequence,,2025.1.1,59.93770076,2025-10-02 19h30.31.288865 +0530
150,v,128,0,32,c,0,0.7361642,None,,,,,32,0,128,1,1181.048945,,1181.034704,1181.048945,1182.048631,1182.048631,1182.048631,1182.048631,1182.048631,1183.048936,1183.048936,1183.802648,,,,,c,0,0.7361642,None,1,1,2025-10-02_19h29.32.885,Motor Sequence,,2025.1.1,59.93770076,2025-10-02 19h30.31.288865 +0530
-150,z,129,1,32,x,0,0.6956838,None,,,,,32,1,129,3,1183.815208,,1183.802855,1183.815208,1184.814533,1184.814533,1184.814533,1184.814533,1184.814533,1185.815323,1185.815323,1186.518987,,,,,x,0,0.6956838,None,1,1,2025-10-02_19h29.32.885,Motor Sequence,,2025.1.1,59.93770076,2025-10-02 19h30.31.288865 +0530
