thisN,thisTrialN,thisRepN,mouse.x,mouse.y,mouse.leftButton,mouse.midButton,mouse.rightButton,mouse.time,mouse.clicked_name,trials.thisRepN,trials.thisTrialN,trials.thisN,trials.thisIndex,thisRow.t,notes,num_distr,trial.started,fixation.started,target.started,mouse.started,trial.stopped,trials.mouse.x,trials.mouse.y,trials.mouse.leftButton,trials.mouse.midButton,trials.mouse.rightButton,trials.mouse.time,trials.mouse.clicked_name,participant,session,date,expName,expVersion,psychopyVersion,frameRate,expStart,
0,0,0,[np.float64(0.06574074074074074)],[np.float64(-0.23703703703703705)],[1],[0],[0],[1.1768679001834244],['target'],0,0,0,0,0.0307285999879241,,10,0.02345809992402792,0.0307285999879241,0.0307285999879241,0.023476900067180395,1.20044990000315,[np.float64(0.06574074074074074)],[np.float64(-0.23703703703703705)],[1],[0],[0],[1.1768679001834244],['target'],1,001,2025-09-30_15h37.13.656,Visual Search,,2025.1.1,60.29203045632926,2025-09-30 15h37.20.021197 +0530,
1,0,1,[np.float64(-0.41944444444444445)],[np.float64(0.36944444444444446)],[1],[0],[0],[1.5614599999971688],['target'],1,0,1,0,1.216339600039646,,5,1.2100237999111414,1.216339600039646,1.216339600039646,0.00928100012242794,2.771600800100714,[np.float64(-0.41944444444444445)],[np.float64(0.36944444444444446)],[1],[0],[0],[1.5614599999971688],['target'],1,001,2025-09-30_15h37.13.656,Visual Search,,2025.1.1,60.29203045632926,2025-09-30 15h37.20.021197 +0530,
2,0,2,[np.float64(0.43333333333333335)],[np.float64(-0.3787037037037037)],[1],[0],[0],[1.3362598998937756],['target'],2,0,2,0,2.7857443001121283,,5,2.7815493000671268,2.7857443001121283,2.7857443001121283,0.009775300044566393,4.117898399941623,[np.float64(0.43333333333333335)],[np.float64(-0.3787037037037037)],[1],[0],[0],[1.3362598998937756],['target'],1,001,2025-09-30_15h37.13.656,Visual Search,,2025.1.1,60.29203045632926,2025-09-30 15h37.20.021197 +0530,
3,0,3,[np.float64(-0.09351851851851851)],[np.float64(-0.22407407407407406)],[1],[0],[0],[1.1688077000435442],['target'],3,0,3,0,4.132849399931729,,5,4.1282760999165475,4.132849399931729,4.132849399931729,0.010222400072962046,5.2972335000522435,[np.float64(-0.09351851851851851)],[np.float64(-0.22407407407407406)],[1],[0],[0],[1.1688077000435442],['target'],1,001,2025-09-30_15h37.13.656,Visual Search,,2025.1.1,60.29203045632926,2025-09-30 15h37.20.021197 +0530,
4,0,4,[np.float64(-0.18888888888888888)],[np.float64(0.2657407407407407)],[1],[0],[0],[1.2205739999189973],['target'],4,0,4,0,5.320437199901789,,10,5.314313600072637,5.320437199901789,5.320437199901789,0.0168440998531878,6.534989699954167,[np.float64(-0.18888888888888888)],[np.float64(0.2657407407407407)],[1],[0],[0],[1.2205739999189973],['target'],1,001,2025-09-30_15h37.13.656,Visual Search,,2025.1.1,60.29203045632926,2025-09-30 15h37.20.021197 +0530,
5,0,5,[np.float64(-0.43425925925925923)],[np.float64(-0.001851851851851852)],[1],[0],[0],[1.1215911998879164],['target'],5,0,5,0,6.551842000102624,,5,6.547601500060409,6.551842000102624,6.551842000102624,0.012414499884471297,7.6693059001117945,[np.float64(-0.43425925925925923)],[np.float64(-0.001851851851851852)],[1],[0],[0],[1.1215911998879164],['target'],1,001,2025-09-30_15h37.13.656,Visual Search,,2025.1.1,60.29203045632926,2025-09-30 15h37.20.021197 +0530,
6,0,6,[np.float64(0.43333333333333335)],[np.float64(-0.14074074074074075)],[1],[0],[0],[2.078187699895352],['target'],6,0,6,0,7.692589099984616,,10,7.686469200067222,7.692589099984616,7.692589099984616,0.016972499899566174,9.76478790002875,[np.float64(0.43333333333333335)],[np.float64(-0.14074074074074075)],[1],[0],[0],[2.078187699895352],['target'],1,001,2025-09-30_15h37.13.656,Visual Search,,2025.1.1,60.29203045632926,2025-09-30 15h37.20.021197 +0530,
7,0,7,[np.float64(-0.1962962962962963)],[np.float64(-0.21481481481481482)],[1],[0],[0],[1.1169273001141846],['target'],7,0,7,0,9.787207700079307,,10,9.781404699897394,9.787207700079307,9.787207700079307,0.016344500007107854,10.898434000089765,[np.float64(-0.1962962962962963)],[np.float64(-0.21481481481481482)],[1],[0],[0],[1.1169273001141846],['target'],1,001,2025-09-30_15h37.13.656,Visual Search,,2025.1.1,60.29203045632926,2025-09-30 15h37.20.021197 +0530,
8,0,8,[np.float64(0.20092592592592592)],[np.float64(0.0712962962962963)],[1],[0],[0],[1.204096500063315],['target'],8,0,8,0,10.92088930006139,,10,10.915089899906889,10.92088930006139,10.92088930006139,0.016421400010585785,12.119287800043821,[np.float64(0.20092592592592592)],[np.float64(0.0712962962962963)],[1],[0],[0],[1.204096500063315],['target'],1,001,2025-09-30_15h37.13.656,Visual Search,,2025.1.1,60.29203045632926,2025-09-30 15h37.20.021197 +0530,
9,0,9,[np.float64(-0.003703703703703704)],[np.float64(0.17592592592592593)],[1],[0],[0],[1.128597600152716],[None],9,0,9,0,12.14158540009521,,10,12.13530379999429,12.14158540009521,12.14158540009521,0.01581490016542375,13.264004100114107,[np.float64(-0.003703703703703704)],[np.float64(0.17592592592592593)],[1],[0],[0],[1.128597600152716],[None],1,001,2025-09-30_15h37.13.656,Visual Search,,2025.1.1,60.29203045632926,2025-09-30 15h37.20.021197 +0530,
10,0,10,[np.float64(0.13333333333333333)],[np.float64(0.1175925925925926)],[1],[0],[0],[1.1548018001485616],['target'],10,0,10,0,13.280438099987805,,5,13.276165399933234,13.280438099987805,13.280438099987805,0.011970299994572997,14.431206200039014,[np.float64(0.13333333333333333)],[np.float64(0.1175925925925926)],[1],[0],[0],[1.1548018001485616],['target'],1,001,2025-09-30_15h37.13.656,Visual Search,,2025.1.1,60.29203045632926,2025-09-30 15h37.20.021197 +0530,
11,0,11,[np.float64(0.27870370370370373)],[np.float64(-0.4824074074074074)],[1],[0],[0],[1.4885113001801074],['target'],11,0,11,0,14.453534400090575,,10,14.447763100033626,14.453534400090575,14.453534400090575,0.01629739999771118,15.936383200110868,[np.float64(0.27870370370370373)],[np.float64(-0.4824074074074074)],[1],[0],[0],[1.4885113001801074],['target'],1,001,2025-09-30_15h37.13.656,Visual Search,,2025.1.1,60.29203045632926,2025-09-30 15h37.20.021197 +0530,
12,0,12,[np.float64(-0.04537037037037037)],[np.float64(-0.08425925925925926)],[1],[0],[0],[1.5384065001271665],['target'],12,0,12,0,15.9502115000505,,5,15.945955900009722,15.9502115000505,15.9502115000505,0.009361800039187074,17.48446059995331,[np.float64(-0.04537037037037037)],[np.float64(-0.08425925925925926)],[1],[0],[0],[1.5384065001271665],['target'],1,001,2025-09-30_15h37.13.656,Visual Search,,2025.1.1,60.29203045632926,2025-09-30 15h37.20.021197 +0530,
13,0,13,[np.float64(-0.3490740740740741)],[np.float64(-0.3611111111111111)],[1],[0],[0],[1.152613699901849],['target'],13,0,13,0,17.50587039999664,,10,17.499662999995053,17.50587039999664,17.50587039999664,0.015033399919047952,18.652384199900553,[np.float64(-0.3490740740740741)],[np.float64(-0.3611111111111111)],[1],[0],[0],[1.152613699901849],['target'],1,001,2025-09-30_15h37.13.656,Visual Search,,2025.1.1,60.29203045632926,2025-09-30 15h37.20.021197 +0530,
14,0,14,[np.float64(0.3416666666666667)],[np.float64(-0.17592592592592593)],[1],[0],[0],[1.4476860000286251],['target'],14,0,14,0,18.67627210007049,,10,18.669666199944913,18.67627210007049,18.67627210007049,0.017076600110158324,20.11744530010037,[np.float64(0.3416666666666667)],[np.float64(-0.17592592592592593)],[1],[0],[0],[1.4476860000286251],['target'],1,001,2025-09-30_15h37.13.656,Visual Search,,2025.1.1,60.29203045632926,2025-09-30 15h37.20.021197 +0530,
15,0,15,[np.float64(0.2462962962962963)],[np.float64(-0.04537037037037037)],[1],[0],[0],[1.1023885000031441],['target'],15,0,15,0,20.140028699999675,,10,20.133377599995583,20.140028699999675,20.140028699999675,0.015740300063043833,21.23587500001304,[np.float64(0.2462962962962963)],[np.float64(-0.04537037037037037)],[1],[0],[0],[1.1023885000031441],['target'],1,001,2025-09-30_15h37.13.656,Visual Search,,2025.1.1,60.29203045632926,2025-09-30 15h37.20.021197 +0530,
16,0,16,[np.float64(-0.4111111111111111)],[np.float64(0.44537037037037036)],[1],[0],[0],[1.858169199898839],['target'],16,0,16,0,21.249939100118354,,5,21.245332200080156,21.249939100118354,21.249939100118354,0.009256500052288175,23.103623500093818,[np.float64(-0.4111111111111111)],[np.float64(0.44537037037037036)],[1],[0],[0],[1.858169199898839],['target'],1,001,2025-09-30_15h37.13.656,Visual Search,,2025.1.1,60.29203045632926,2025-09-30 15h37.20.021197 +0530,
17,0,17,[np.float64(-0.09074074074074075)],[np.float64(0.45925925925925926)],[1],[0],[0],[1.5036575000267476],['target'],17,0,17,0,23.118700799997896,,5,23.11387289990671,23.118700799997896,23.118700799997896,0.010039899963885546,24.61763250012882,[np.float64(-0.09074074074074075)],[np.float64(0.45925925925925926)],[1],[0],[0],[1.5036575000267476],['target'],1,001,2025-09-30_15h37.13.656,Visual Search,,2025.1.1,60.29203045632926,2025-09-30 15h37.20.021197 +0530,
18,0,18,[np.float64(-0.4351851851851852)],[np.float64(0.1925925925925926)],[1],[0],[0],[1.1234252001158893],['target'],18,0,18,0,24.632404499920085,,5,24.62765910010785,24.632404499920085,24.632404499920085,0.009825200075283647,25.75118859997019,[np.float64(-0.4351851851851852)],[np.float64(0.1925925925925926)],[1],[0],[0],[1.1234252001158893],['target'],1,001,2025-09-30_15h37.13.656,Visual Search,,2025.1.1,60.29203045632926,2025-09-30 15h37.20.021197 +0530,
19,0,19,[np.float64(-0.11851851851851852)],[np.float64(-0.2111111111111111)],[1],[0],[0],[1.3700311998836696],['target'],19,0,19,0,25.76736390008591,,5,25.762923500034958,25.76736390008591,25.76736390008591,0.011577100027352571,27.133042400004342,[np.float64(-0.11851851851851852)],[np.float64(-0.2111111111111111)],[1],[0],[0],[1.3700311998836696],['target'],1,001,2025-09-30_15h37.13.656,Visual Search,,2025.1.1,60.29203045632926,2025-09-30 15h37.20.021197 +0530,
20,0,20,[np.float64(-0.42314814814814816)],[np.float64(0.11851851851851852)],[1],[0],[0],[2.0577314000111073],['target'],20,0,20,0,27.147388899931684,,5,27.143006999976933,27.147388899931684,27.147388899931684,0.009811400203034282,29.200839000055566,[np.float64(-0.42314814814814816)],[np.float64(0.11851851851851852)],[1],[0],[0],[2.0577314000111073],['target'],1,001,2025-09-30_15h37.13.656,Visual Search,,2025.1.1,60.29203045632926,2025-09-30 15h37.20.021197 +0530,
21,0,21,[np.float64(-0.44537037037037036)],[np.float64(0.43703703703703706)],[1],[0],[0],[1.4244922001380473],['target'],21,0,21,0,29.214275900041685,,5,29.209746100008488,29.214275900041685,29.214275900041685,0.008737900061532855,30.634342100005597,[np.float64(-0.44537037037037036)],[np.float64(0.43703703703703706)],[1],[0],[0],[1.4244922001380473],['target'],1,001,2025-09-30_15h37.13.656,Visual Search,,2025.1.1,60.29203045632926,2025-09-30 15h37.20.021197 +0530,
22,0,22,[np.float64(0.4675925925925926)],[np.float64(-0.24537037037037038)],[1],[0],[0],[1.5892968999687582],['target'],22,0,22,0,30.648127200081944,,5,30.643902000039816,30.648127200081944,30.648127200081944,0.009378699818626046,32.23328649997711,[np.float64(0.4675925925925926)],[np.float64(-0.24537037037037038)],[1],[0],[0],[1.5892968999687582],['target'],1,001,2025-09-30_15h37.13.656,Visual Search,,2025.1.1,60.29203045632926,2025-09-30 15h37.20.021197 +0530,
23,0,23,[np.float64(-0.4675925925925926)],[np.float64(-0.2777777777777778)],[1],[0],[0],[1.8873816998675466],['target'],23,0,23,0,32.24915029993281,,5,32.24332519993186,32.24915029993281,32.24915029993281,0.009875900112092495,34.130837300093845,[np.float64(-0.4675925925925926)],[np.float64(-0.2777777777777778)],[1],[0],[0],[1.8873816998675466],['target'],1,001,2025-09-30_15h37.13.656,Visual Search,,2025.1.1,60.29203045632926,2025-09-30 15h37.20.021197 +0530,
24,0,24,[np.float64(-0.21666666666666667)],[np.float64(0.225)],[1],[0],[0],[1.3238687000703067],['target'],24,0,24,0,34.14536590012722,,5,34.14115929999389,34.14536590012722,34.14536590012722,0.010092699900269508,35.46510730008595,[np.float64(-0.21666666666666667)],[np.float64(0.225)],[1],[0],[0],[1.3238687000703067],['target'],1,001,2025-09-30_15h37.13.656,Visual Search,,2025.1.1,60.29203045632926,2025-09-30 15h37.20.021197 +0530,
25,0,25,[np.float64(0.4601851851851852)],[np.float64(-0.1527777777777778)],[1],[0],[0],[2.2840418999549],['target'],25,0,25,0,35.48671000008471,,10,35.48022340005264,35.48671000008471,35.48671000008471,0.014990200055763125,37.764410299947485,[np.float64(0.4601851851851852)],[np.float64(-0.1527777777777778)],[1],[0],[0],[2.2840418999549],['target'],1,001,2025-09-30_15h37.13.656,Visual Search,,2025.1.1,60.29203045632926,2025-09-30 15h37.20.021197 +0530,
26,0,26,[np.float64(-0.002777777777777778)],[np.float64(0.4351851851851852)],[1],[0],[0],[1.4238141998648643],[None],26,0,26,0,37.77964530000463,,5,37.774706500116736,37.77964530000463,37.77964530000463,0.01002630009315908,39.19882420008071,[np.float64(-0.002777777777777778)],[np.float64(0.4351851851851852)],[1],[0],[0],[1.4238141998648643],[None],1,001,2025-09-30_15h37.13.656,Visual Search,,2025.1.1,60.29203045632926,2025-09-30 15h37.20.021197 +0530,
27,0,27,[np.float64(-0.29907407407407405)],[np.float64(-0.14074074074074075)],[1],[0],[0],[1.333576099947095],['target'],27,0,27,0,39.22264629998244,,10,39.21596419997513,39.22264629998244,39.22264629998244,0.016828599851578474,40.54964499990456,[np.float64(-0.29907407407407405)],[np.float64(-0.14074074074074075)],[1],[0],[0],[1.333576099947095],['target'],1,001,2025-09-30_15h37.13.656,Visual Search,,2025.1.1,60.29203045632926,2025-09-30 15h37.20.021197 +0530,
28,0,28,[np.float64(0.45)],[np.float64(-0.38333333333333336)],[1],[0],[0],[1.9349109998438507],['target'],28,0,28,0,40.57306300010532,,10,40.566313199931756,40.57306300010532,40.57306300010532,0.016469200141727924,42.50133230001666,[np.float64(0.45)],[np.float64(-0.38333333333333336)],[1],[0],[0],[1.9349109998438507],['target'],1,001,2025-09-30_15h37.13.656,Visual Search,,2025.1.1,60.29203045632926,2025-09-30 15h37.20.021197 +0530,
29,0,29,[np.float64(-0.0712962962962963)],[np.float64(-0.14166666666666666)],[1],[0],[0],[1.4493728000670671],['target'],29,0,29,0,42.52447069995105,,10,42.518035399960354,42.52447069995105,42.52447069995105,0.016485400032252073,43.967509699985385,[np.float64(-0.0712962962962963)],[np.float64(-0.14166666666666666)],[1],[0],[0],[1.4493728000670671],['target'],1,001,2025-09-30_15h37.13.656,Visual Search,,2025.1.1,60.29203045632926,2025-09-30 15h37.20.021197 +0530,
30,0,30,[np.float64(0.26296296296296295)],[np.float64(-0.16203703703703703)],[1],[0],[0],[1.5179253998212516],['target'],30,0,30,0,43.988955199951306,,10,43.98202860006131,43.988955199951306,43.988955199951306,0.014322299975901842,45.500039000064135,[np.float64(0.26296296296296295)],[np.float64(-0.16203703703703703)],[1],[0],[0],[1.5179253998212516],['target'],1,001,2025-09-30_15h37.13.656,Visual Search,,2025.1.1,60.29203045632926,2025-09-30 15h37.20.021197 +0530,
31,0,31,[np.float64(0.18425925925925926)],[np.float64(0.05462962962962963)],[1],[0],[0],[1.3404290999751538],['target'],31,0,31,0,45.512986100045964,,5,45.50835129991174,45.512986100045964,45.512986100045964,0.008144000079482794,46.84895380004309,[np.float64(0.18425925925925926)],[np.float64(0.05462962962962963)],[1],[0],[0],[1.3404290999751538],['target'],1,001,2025-09-30_15h37.13.656,Visual Search,,2025.1.1,60.29203045632926,2025-09-30 15h37.20.021197 +0530,
32,0,32,[np.float64(0.44351851851851853)],[np.float64(-0.3611111111111111)],[1],[0],[0],[1.552533800015226],['target'],32,0,32,0,46.873408700106665,,10,46.86645249999128,46.873408700106665,46.873408700106665,0.017212700098752975,48.419096699915826,[np.float64(0.44351851851851853)],[np.float64(-0.3611111111111111)],[1],[0],[0],[1.552533800015226],['target'],1,001,2025-09-30_15h37.13.656,Visual Search,,2025.1.1,60.29203045632926,2025-09-30 15h37.20.021197 +0530,
33,0,33,[np.float64(0.06481481481481481)],[np.float64(0.4861111111111111)],[1],[0],[0],[3.810976699925959],['target'],33,0,33,0,48.4466222000774,,10,48.439411300001666,48.4466222000774,48.4466222000774,0.020099899964407086,52.25049149990082,[np.float64(0.06481481481481481)],[np.float64(0.4861111111111111)],[1],[0],[0],[3.810976699925959],['target'],1,001,2025-09-30_15h37.13.656,Visual Search,,2025.1.1,60.29203045632926,2025-09-30 15h37.20.021197 +0530,
34,0,34,[np.float64(-0.4740740740740741)],[np.float64(0.23333333333333334)],[1],[0],[0],[1.3706412999890745],['target'],34,0,34,0,52.26459460007027,,5,52.25972230010666,52.26459460007027,52.26459460007027,0.009045900078490376,53.630491599906236,[np.float64(-0.4740740740740741)],[np.float64(0.23333333333333334)],[1],[0],[0],[1.3706412999890745],['target'],1,001,2025-09-30_15h37.13.656,Visual Search,,2025.1.1,60.29203045632926,2025-09-30 15h37.20.021197 +0530,
35,0,35,[np.float64(-0.4351851851851852)],[np.float64(0.21574074074074073)],[1],[0],[0],[1.3835444001015276],['target'],35,0,35,0,53.65354120009579,,10,53.647013100096956,53.65354120009579,53.65354120009579,0.016308499965816736,55.030682099983096,[np.float64(-0.4351851851851852)],[np.float64(0.21574074074074073)],[1],[0],[0],[1.3835444001015276],['target'],1,001,2025-09-30_15h37.13.656,Visual Search,,2025.1.1,60.29203045632926,2025-09-30 15h37.20.021197 +0530,
36,0,36,[np.float64(-0.45185185185185184)],[np.float64(-0.062037037037037036)],[1],[0],[0],[1.3857857999391854],['target'],36,0,36,0,55.05419640010223,,10,55.047736699925736,55.05419640010223,55.05419640010223,0.016803199891000986,56.43359580007382,[np.float64(-0.45185185185185184)],[np.float64(-0.062037037037037036)],[1],[0],[0],[1.3857857999391854],['target'],1,001,2025-09-30_15h37.13.656,Visual Search,,2025.1.1,60.29203045632926,2025-09-30 15h37.20.021197 +0530,
37,0,37,[np.float64(0.32314814814814813)],[np.float64(0.40185185185185185)],[1],[0],[0],[1.8534186000470072],['target'],37,0,37,0,56.453909300034866,,10,56.44796509994194,56.453909300034866,56.453909300034866,0.01422070013359189,58.30149310012348,[np.float64(0.32314814814814813)],[np.float64(0.40185185185185185)],[1],[0],[0],[1.8534186000470072],['target'],1,001,2025-09-30_15h37.13.656,Visual Search,,2025.1.1,60.29203045632926,2025-09-30 15h37.20.021197 +0530,
38,0,38,[np.float64(0.1685185185185185)],[np.float64(-0.4398148148148148)],[1],[0],[0],[2.1713709000032395],['target'],38,0,38,0,58.31716530001722,,5,58.312282300088555,58.31716530001722,58.31716530001722,0.010591400088742375,60.483762100106105,[np.float64(0.1685185185185185)],[np.float64(-0.4398148148148148)],[1],[0],[0],[2.1713709000032395],['target'],1,001,2025-09-30_15h37.13.656,Visual Search,,2025.1.1,60.29203045632926,2025-09-30 15h37.20.021197 +0530,
39,0,39,[np.float64(0.2212962962962963)],[np.float64(0.16111111111111112)],[1],[0],[0],[1.3981353000272065],['target'],39,0,39,0,60.5073516999837,,10,60.501030300045386,60.5073516999837,60.5073516999837,0.016516299918293953,61.89923850004561,[np.float64(0.2212962962962963)],[np.float64(0.16111111111111112)],[1],[0],[0],[1.3981353000272065],['target'],1,001,2025-09-30_15h37.13.656,Visual Search,,2025.1.1,60.29203045632926,2025-09-30 15h37.20.021197 +0530,
40,0,40,[np.float64(0.30462962962962964)],[np.float64(0.1935185185185185)],[1],[0],[0],[1.4070858999621123],['target'],40,0,40,0,61.911798800108954,,5,61.90695800003596,61.911798800108954,61.911798800108954,0.007589500164613128,63.31409589992836,[np.float64(0.30462962962962964)],[np.float64(0.1935185185185185)],[1],[0],[0],[1.4070858999621123],['target'],1,001,2025-09-30_15h37.13.656,Visual Search,,2025.1.1,60.29203045632926,2025-09-30 15h37.20.021197 +0530,
41,0,41,[np.float64(0.34814814814814815)],[np.float64(-0.20092592592592592)],[1],[0],[0],[1.671392599819228],['target'],41,0,41,0,63.336363200098276,,10,63.3286276999861,63.336363200098276,63.336363200098276,0.014446700224652886,65.00009010010399,[np.float64(0.34814814814814815)],[np.float64(-0.20092592592592592)],[1],[0],[0],[1.671392599819228],['target'],1,001,2025-09-30_15h37.13.656,Visual Search,,2025.1.1,60.29203045632926,2025-09-30 15h37.20.021197 +0530,
42,0,42,[np.float64(0.21944444444444444)],[np.float64(0.040740740740740744)],[1],[0],[0],[1.6652132000308484],['target'],42,0,42,0,65.02124079992063,,10,65.01437660004012,65.02124079992063,65.02124079992063,0.014165000058710575,66.67967520002276,[np.float64(0.21944444444444444)],[np.float64(0.040740740740740744)],[1],[0],[0],[1.6652132000308484],['target'],1,001,2025-09-30_15h37.13.656,Visual Search,,2025.1.1,60.29203045632926,2025-09-30 15h37.20.021197 +0530,
43,0,43,[np.float64(0.04259259259259259)],[np.float64(0.2175925925925926)],[1],[0],[0],[1.6220418999437243],['target'],43,0,43,0,66.7012917001266,,10,66.69444829993881,66.7012917001266,66.7012917001266,0.014607999939471483,68.31658459990285,[np.float64(0.04259259259259259)],[np.float64(0.2175925925925926)],[1],[0],[0],[1.6220418999437243],['target'],1,001,2025-09-30_15h37.13.656,Visual Search,,2025.1.1,60.29203045632926,2025-09-30 15h37.20.021197 +0530,
44,0,44,[np.float64(0.39537037037037037)],[np.float64(-0.05092592592592592)],[1],[0],[0],[1.5248024000320584],['target'],44,0,44,0,68.32963389996439,,5,68.32526280009188,68.32963389996439,68.32963389996439,0.008494599955156446,69.85018649999984,[np.float64(0.39537037037037037)],[np.float64(-0.05092592592592592)],[1],[0],[0],[1.5248024000320584],['target'],1,001,2025-09-30_15h37.13.656,Visual Search,,2025.1.1,60.29203045632926,2025-09-30 15h37.20.021197 +0530,
45,0,45,[np.float64(-0.2777777777777778)],[np.float64(0.4787037037037037)],[1],[0],[0],[2.9710764000192285],['target'],45,0,45,0,69.86717840004712,,5,69.86244289996102,69.86717840004712,69.86717840004712,0.012001900002360344,72.83361329999752,[np.float64(-0.2777777777777778)],[np.float64(0.4787037037037037)],[1],[0],[0],[2.9710764000192285],['target'],1,001,2025-09-30_15h37.13.656,Visual Search,,2025.1.1,60.29203045632926,2025-09-30 15h37.20.021197 +0530,
46,0,46,[np.float64(0.4305555555555556)],[np.float64(-0.38333333333333336)],[1],[0],[0],[2.00305929989554],['target'],46,0,46,0,72.84979159990326,,5,72.84531050012447,72.84979159990326,72.84979159990326,0.011536099947988987,74.84843969997019,[np.float64(0.4305555555555556)],[np.float64(-0.38333333333333336)],[1],[0],[0],[2.00305929989554],['target'],1,001,2025-09-30_15h37.13.656,Visual Search,,2025.1.1,60.29203045632926,2025-09-30 15h37.20.021197 +0530,
47,0,47,[np.float64(0.40370370370370373)],[np.float64(-0.016666666666666666)],[1],[0],[0],[1.5123354000970721],['target'],47,0,47,0,74.86141210002825,,5,74.85649659996852,74.86141210002825,74.86141210002825,0.007924499921500683,76.36896739993244,[np.float64(0.40370370370370373)],[np.float64(-0.016666666666666666)],[1],[0],[0],[1.5123354000970721],['target'],1,001,2025-09-30_15h37.13.656,Visual Search,,2025.1.1,60.29203045632926,2025-09-30 15h37.20.021197 +0530,
48,0,48,[np.float64(-0.23333333333333334)],[np.float64(0.11666666666666667)],[1],[0],[0],[1.6811374998651445],['target'],48,0,48,0,76.39110559993424,,10,76.38474119990133,76.39110559993424,76.39110559993424,0.015590100083500147,78.06596089992672,[np.float64(-0.23333333333333334)],[np.float64(0.11666666666666667)],[1],[0],[0],[1.6811374998651445],['target'],1,001,2025-09-30_15h37.13.656,Visual Search,,2025.1.1,60.29203045632926,2025-09-30 15h37.20.021197 +0530,
49,0,49,[np.float64(0.3648148148148148)],[np.float64(-0.18333333333333332)],[1],[0],[0],[1.5544483999256045],['target'],49,0,49,0,78.08661639993079,,10,78.08045769995078,78.08661639993079,78.08661639993079,0.014345500152558088,79.6350153000094,[np.float64(0.3648148148148148)],[np.float64(-0.18333333333333332)],[1],[0],[0],[1.5544483999256045],['target'],1,001,2025-09-30_15h37.13.656,Visual Search,,2025.1.1,60.29203045632926,2025-09-30 15h37.20.021197 +0530,
50,0,50,[np.float64(0.13796296296296295)],[np.float64(-0.4222222222222222)],[1],[0],[0],[2.1010459000244737],['target'],50,0,50,0,79.65660710004158,,10,79.65018610004336,79.65660710004158,79.65660710004158,0.01494939997792244,81.75135000003502,[np.float64(0.13796296296296295)],[np.float64(-0.4222222222222222)],[1],[0],[0],[2.1010459000244737],['target'],1,001,2025-09-30_15h37.13.656,Visual Search,,2025.1.1,60.29203045632926,2025-09-30 15h37.20.021197 +0530,
51,0,51,[np.float64(0.36944444444444446)],[np.float64(0.25092592592592594)],[1],[0],[0],[1.6804842001292855],['target'],51,0,51,0,81.77372900000773,,10,81.76798600004986,81.77372900000773,81.77372900000773,0.01636010012589395,83.44852229999378,[np.float64(0.36944444444444446)],[np.float64(0.25092592592592594)],[1],[0],[0],[1.6804842001292855],['target'],1,001,2025-09-30_15h37.13.656,Visual Search,,2025.1.1,60.29203045632926,2025-09-30 15h37.20.021197 +0530,
52,0,52,[np.float64(-0.1527777777777778)],[np.float64(-0.3768518518518518)],[1],[0],[0],[2.0620832999702543],['target'],52,0,52,0,83.46165660000406,,5,83.45598000008613,83.46165660000406,83.46165660000406,0.007334600202739239,85.51814930001274,[np.float64(-0.1527777777777778)],[np.float64(-0.3768518518518518)],[1],[0],[0],[2.0620832999702543],['target'],1,001,2025-09-30_15h37.13.656,Visual Search,,2025.1.1,60.29203045632926,2025-09-30 15h37.20.021197 +0530,
53,0,53,[np.float64(-0.2212962962962963)],[np.float64(-0.14722222222222223)],[1],[0],[0],[1.3149745999835432],['target'],53,0,53,0,85.53988680010661,,10,85.53361909999512,85.53988680010661,85.53988680010661,0.015338999917730689,86.84866719995625,[np.float64(-0.2212962962962963)],[np.float64(-0.14722222222222223)],[1],[0],[0],[1.3149745999835432],['target'],1,001,2025-09-30_15h37.13.656,Visual Search,,2025.1.1,60.29203045632926,2025-09-30 15h37.20.021197 +0530,
54,0,54,[np.float64(-0.32407407407407407)],[np.float64(0.11944444444444445)],[1],[0],[0],[1.169923200039193],['target'],54,0,54,0,86.86980800004676,,10,86.86240409989841,86.86980800004676,86.86980800004676,0.013595699798315763,88.03239740012214,[np.float64(-0.32407407407407407)],[np.float64(0.11944444444444445)],[1],[0],[0],[1.169923200039193],['target'],1,001,2025-09-30_15h37.13.656,Visual Search,,2025.1.1,60.29203045632926,2025-09-30 15h37.20.021197 +0530,
55,0,55,[np.float64(-0.05)],[np.float64(-0.13055555555555556)],[1],[0],[0],[1.3789373999461532],['target'],55,0,55,0,88.04620580002666,,5,88.04057159996592,88.04620580002666,88.04620580002666,0.008037100080400705,89.41966899996623,[np.float64(-0.05)],[np.float64(-0.13055555555555556)],[1],[0],[0],[1.3789373999461532],['target'],1,001,2025-09-30_15h37.13.656,Visual Search,,2025.1.1,60.29203045632926,2025-09-30 15h37.20.021197 +0530,
56,0,56,[np.float64(0.39351851851851855)],[np.float64(0.16111111111111112)],[1],[0],[0],[1.3212412998545915],['target'],56,0,56,0,89.43522770004347,,5,89.4292381000705,89.43522770004347,89.43522770004347,0.009385700104758143,90.75056930002756,[np.float64(0.39351851851851855)],[np.float64(0.16111111111111112)],[1],[0],[0],[1.3212412998545915],['target'],1,001,2025-09-30_15h37.13.656,Visual Search,,2025.1.1,60.29203045632926,2025-09-30 15h37.20.021197 +0530,
57,0,57,[np.float64(-0.42777777777777776)],[np.float64(-0.46944444444444444)],[1],[0],[0],[2.019093999871984],['target'],57,0,57,0,90.77285959990695,,10,90.76641259994358,90.77285959990695,90.77285959990695,0.015668899985030293,92.78560649999417,[np.float64(-0.42777777777777776)],[np.float64(-0.46944444444444444)],[1],[0],[0],[2.019093999871984],['target'],1,001,2025-09-30_15h37.13.656,Visual Search,,2025.1.1,60.29203045632926,2025-09-30 15h37.20.021197 +0530,
58,0,58,[np.float64(-0.03981481481481482)],[np.float64(0.40925925925925927)],[1],[0],[0],[1.8496727999299765],['target'],58,0,58,0,92.80736500001512,,10,92.80116460006684,92.80736500001512,92.80736500001512,0.015334099996834993,94.6509309001267,[np.float64(-0.03981481481481482)],[np.float64(0.40925925925925927)],[1],[0],[0],[1.8496727999299765],['target'],1,001,2025-09-30_15h37.13.656,Visual Search,,2025.1.1,60.29203045632926,2025-09-30 15h37.20.021197 +0530,
59,0,59,[np.float64(-0.33240740740740743)],[np.float64(0.4203703703703704)],[1],[0],[0],[1.7248104999307543],['target'],59,0,59,0,94.66412650002167,,5,94.65958019997925,94.66412650002167,94.66412650002167,0.008471900131553411,96.38448309991509,[np.float64(-0.33240740740740743)],[np.float64(0.4203703703703704)],[1],[0],[0],[1.7248104999307543],['target'],1,001,2025-09-30_15h37.13.656,Visual Search,,2025.1.1,60.29203045632926,2025-09-30 15h37.20.021197 +0530,
60,0,60,[np.float64(-0.14074074074074075)],[np.float64(-0.3972222222222222)],[1],[0],[0],[1.4676257998216897],['target'],60,0,60,0,96.4005472001154,,5,96.39577460009605,96.4005472001154,96.4005472001154,0.01111490000039339,97.86354360007681,[np.float64(-0.14074074074074075)],[np.float64(-0.3972222222222222)],[1],[0],[0],[1.4676257998216897],['target'],1,001,2025-09-30_15h37.13.656,Visual Search,,2025.1.1,60.29203045632926,2025-09-30 15h37.20.021197 +0530,
61,0,61,[np.float64(-0.37407407407407406)],[np.float64(-0.42777777777777776)],[1],[0],[0],[1.7994570001028478],['target'],61,0,61,0,97.88849820010364,,10,97.88228589994833,97.88849820010364,97.88849820010364,0.018489500042051077,99.68181250011548,[np.float64(-0.37407407407407406)],[np.float64(-0.42777777777777776)],[1],[0],[0],[1.7994570001028478],['target'],1,001,2025-09-30_15h37.13.656,Visual Search,,2025.1.1,60.29203045632926,2025-09-30 15h37.20.021197 +0530,
62,0,62,[np.float64(0.17314814814814813)],[np.float64(0.1259259259259259)],[1],[0],[0],[1.19408809999004],['target'],62,0,62,0,99.6945907000918,,5,99.68944060010836,99.6945907000918,99.6945907000918,0.007496299920603633,100.88362780003808,[np.float64(0.17314814814814813)],[np.float64(0.1259259259259259)],[1],[0],[0],[1.19408809999004],['target'],1,001,2025-09-30_15h37.13.656,Visual Search,,2025.1.1,60.29203045632926,2025-09-30 15h37.20.021197 +0530,
63,0,63,[np.float64(-0.19722222222222222)],[np.float64(0.4351851851851852)],[1],[0],[0],[1.5447529000230134],['target'],63,0,63,0,100.90820720000193,,10,100.90114880003966,100.90820720000193,100.90820720000193,0.017328899819403887,102.44599450007081,[np.float64(-0.19722222222222222)],[np.float64(0.4351851851851852)],[1],[0],[0],[1.5447529000230134],['target'],1,001,2025-09-30_15h37.13.656,Visual Search,,2025.1.1,60.29203045632926,2025-09-30 15h37.20.021197 +0530,
64,0,64,[np.float64(-0.09259259259259259)],[np.float64(0.019444444444444445)],[1],[0],[0],[1.0273034998681396],[None],64,0,64,0,102.46122930012643,,5,102.45489570009522,102.46122930012643,102.46122930012643,0.008711300091817975,103.48228110000491,[np.float64(-0.09259259259259259)],[np.float64(0.019444444444444445)],[1],[0],[0],[1.0273034998681396],[None],1,001,2025-09-30_15h37.13.656,Visual Search,,2025.1.1,60.29203045632926,2025-09-30 15h37.20.021197 +0530,
65,0,65,[np.float64(-0.125)],[np.float64(-0.3824074074074074)],[1],[0],[0],[1.5871105000842363],['target'],65,0,65,0,103.50317910010926,,10,103.49654809990898,103.50317910010926,103.50317910010926,0.014112900011241436,105.08375980006531,[np.float64(-0.125)],[np.float64(-0.3824074074074074)],[1],[0],[0],[1.5871105000842363],['target'],1,001,2025-09-30_15h37.13.656,Visual Search,,2025.1.1,60.29203045632926,2025-09-30 15h37.20.021197 +0530,
66,0,66,[np.float64(-0.44907407407407407)],[np.float64(0.4722222222222222)],[1],[0],[0],[1.8845653999596834],['target'],66,0,66,0,105.10464480007067,,10,105.09794869995676,105.10464480007067,105.10464480007067,0.014016199856996536,106.98259610007517,[np.float64(-0.44907407407407407)],[np.float64(0.4722222222222222)],[1],[0],[0],[1.8845653999596834],['target'],1,001,2025-09-30_15h37.13.656,Visual Search,,2025.1.1,60.29203045632926,2025-09-30 15h37.20.021197 +0530,
67,0,67,[np.float64(0.04259259259259259)],[np.float64(0.014814814814814815)],[1],[0],[0],[1.803218999877572],['target'],67,0,67,0,107.00307420012541,,10,106.99702990008518,107.00307420012541,107.00307420012541,0.01427679997868836,108.80034630000591,[np.float64(0.04259259259259259)],[np.float64(0.014814814814814815)],[1],[0],[0],[1.803218999877572],['target'],1,001,2025-09-30_15h37.13.656,Visual Search,,2025.1.1,60.29203045632926,2025-09-30 15h37.20.021197 +0530,
68,0,68,[np.float64(0.38425925925925924)],[np.float64(0.43425925925925923)],[1],[0],[0],[1.8201580999884754],['target'],68,0,68,0,108.81478099990636,,5,108.81047419994138,108.81478099990636,108.81478099990636,0.009934100089594722,110.63080230006017,[np.float64(0.38425925925925924)],[np.float64(0.43425925925925923)],[1],[0],[0],[1.8201580999884754],['target'],1,001,2025-09-30_15h37.13.656,Visual Search,,2025.1.1,60.29203045632926,2025-09-30 15h37.20.021197 +0530,
69,0,69,[np.float64(-0.18333333333333332)],[np.float64(0.17314814814814813)],[1],[0],[0],[1.2394369998946786],['target'],69,0,69,0,110.64622780005448,,5,110.6413912998978,110.64622780005448,110.64622780005448,0.010356700047850609,111.88091120007448,[np.float64(-0.18333333333333332)],[np.float64(0.17314814814814813)],[1],[0],[0],[1.2394369998946786],['target'],1,001,2025-09-30_15h37.13.656,Visual Search,,2025.1.1,60.29203045632926,2025-09-30 15h37.20.021197 +0530,
70,0,70,[np.float64(-0.43703703703703706)],[np.float64(0.13796296296296295)],[1],[0],[0],[1.2046764998231083],['target'],70,0,70,0,111.90257259993814,,10,111.89583109994419,111.90257259993814,111.90257259993814,0.0147728999145329,113.10060489992611,[np.float64(-0.43703703703703706)],[np.float64(0.13796296296296295)],[1],[0],[0],[1.2046764998231083],['target'],1,001,2025-09-30_15h37.13.656,Visual Search,,2025.1.1,60.29203045632926,2025-09-30 15h37.20.021197 +0530,
71,0,71,[np.float64(-0.4981481481481482)],[np.float64(0.25833333333333336)],[1],[0],[0],[1.303218699991703],['target'],71,0,71,0,113.12236890010536,,10,113.11607700004242,113.12236890010536,113.12236890010536,0.015271099982783198,114.41941659990698,[np.float64(-0.4981481481481482)],[np.float64(0.25833333333333336)],[1],[0],[0],[1.303218699991703],['target'],1,001,2025-09-30_15h37.13.656,Visual Search,,2025.1.1,60.29203045632926,2025-09-30 15h37.20.021197 +0530,
72,0,72,[np.float64(0.3314814814814815)],[np.float64(0.3296296296296296)],[1],[0],[0],[1.6044330999720842],['target'],72,0,72,0,114.43443579995073,,5,114.42938810004853,114.43443579995073,114.43443579995073,0.009697800036519766,116.03392409998924,[np.float64(0.3314814814814815)],[np.float64(0.3296296296296296)],[1],[0],[0],[1.6044330999720842],['target'],1,001,2025-09-30_15h37.13.656,Visual Search,,2025.1.1,60.29203045632926,2025-09-30 15h37.20.021197 +0530,
73,0,73,[np.float64(0.002777777777777778)],[np.float64(-0.2638888888888889)],[1],[0],[0],[1.4700319999828935],['target'],73,0,73,0,116.04804229992442,,5,116.04340300010517,116.04804229992442,116.04804229992442,0.009302100166678429,117.51369930012152,[np.float64(0.002777777777777778)],[np.float64(-0.2638888888888889)],[1],[0],[0],[1.4700319999828935],['target'],1,001,2025-09-30_15h37.13.656,Visual Search,,2025.1.1,60.29203045632926,2025-09-30 15h37.20.021197 +0530,
74,0,74,[np.float64(0.012962962962962963)],[np.float64(-0.35833333333333334)],[1],[0],[0],[1.126664600102231],['target'],74,0,74,0,117.52936140005477,,5,117.52406490012072,117.52936140005477,117.52936140005477,0.010123300133273005,118.6508275999222,[np.float64(0.012962962962962963)],[np.float64(-0.35833333333333334)],[1],[0],[0],[1.126664600102231],['target'],1,001,2025-09-30_15h37.13.656,Visual Search,,2025.1.1,60.29203045632926,2025-09-30 15h37.20.021197 +0530,
75,0,75,[np.float64(0.5)],[np.float64(-0.22962962962962963)],[1],[0],[0],[1.332943200133741],['target'],75,0,75,0,118.67243909998797,,10,118.66579889995046,118.67243909998797,118.67243909998797,0.014786999905481935,119.99885109998286,[np.float64(0.5)],[np.float64(-0.22962962962962963)],[1],[0],[0],[1.332943200133741],['target'],1,001,2025-09-30_15h37.13.656,Visual Search,,2025.1.1,60.29203045632926,2025-09-30 15h37.20.021197 +0530,
76,0,76,[np.float64(0.31851851851851853)],[np.float64(0.13425925925925927)],[1],[0],[0],[1.3347832998260856],['target'],76,0,76,0,120.02154320012778,,10,120.01454630005173,120.02154320012778,120.02154320012778,0.015436999965459108,121.34942790004425,[np.float64(0.31851851851851853)],[np.float64(0.13425925925925927)],[1],[0],[0],[1.3347832998260856],['target'],1,001,2025-09-30_15h37.13.656,Visual Search,,2025.1.1,60.29203045632926,2025-09-30 15h37.20.021197 +0530,
77,0,77,[np.float64(-0.005555555555555556)],[np.float64(-0.3194444444444444)],[1],[0],[0],[1.2270599999465048],['target'],77,0,77,0,121.36257839994505,,5,121.3580259999726,121.36257839994505,121.36257839994505,0.008407399989664555,122.58519289991818,[np.float64(-0.005555555555555556)],[np.float64(-0.3194444444444444)],[1],[0],[0],[1.2270599999465048],['target'],1,001,2025-09-30_15h37.13.656,Visual Search,,2025.1.1,60.29203045632926,2025-09-30 15h37.20.021197 +0530,
78,0,78,[np.float64(-0.13240740740740742)],[np.float64(-0.25555555555555554)],[1],[0],[0],[1.161658100085333],['target'],78,0,78,0,122.61254659993574,,10,122.60518889990635,122.61254659993574,122.61254659993574,0.01983130001462996,123.76694050012156,[np.float64(-0.13240740740740742)],[np.float64(-0.25555555555555554)],[1],[0],[0],[1.161658100085333],['target'],1,001,2025-09-30_15h37.13.656,Visual Search,,2025.1.1,60.29203045632926,2025-09-30 15h37.20.021197 +0530,
79,0,79,[np.float64(0.5009259259259259)],[np.float64(0.3472222222222222)],[1],[0],[0],[1.2316307998262346],['target'],79,0,79,0,123.78958619991317,,10,123.78257509996183,123.78958619991317,123.78958619991317,0.015422099968418479,125.01424719998613,[np.float64(0.5009259259259259)],[np.float64(0.3472222222222222)],[1],[0],[0],[1.2316307998262346],['target'],1,001,2025-09-30_15h37.13.656,Visual Search,,2025.1.1,60.29203045632926,2025-09-30 15h37.20.021197 +0530,
80,0,80,[np.float64(0.03518518518518519)],[np.float64(0.4064814814814815)],[1],[0],[0],[1.3437978001311421],['target'],80,0,80,0,125.02790979994461,,5,125.0236899999436,125.02790979994461,125.02790979994461,0.009360600030049682,126.36761100008152,[np.float64(0.03518518518518519)],[np.float64(0.4064814814814815)],[1],[0],[0],[1.3437978001311421],['target'],1,001,2025-09-30_15h37.13.656,Visual Search,,2025.1.1,60.29203045632926,2025-09-30 15h37.20.021197 +0530,
81,0,81,[np.float64(-0.13796296296296295)],[np.float64(0.36666666666666664)],[1],[0],[0],[0.9828084998298436],['target'],81,0,81,0,126.38880660012364,,10,126.38240640005097,126.38880660012364,126.38880660012364,0.014626499963924289,127.36529550002888,[np.float64(-0.13796296296296295)],[np.float64(0.36666666666666664)],[1],[0],[0],[0.9828084998298436],['target'],1,001,2025-09-30_15h37.13.656,Visual Search,,2025.1.1,60.29203045632926,2025-09-30 15h37.20.021197 +0530,
82,0,82,[np.float64(0.4203703703703704)],[np.float64(0.46574074074074073)],[1],[0],[0],[1.984879900002852],['target'],82,0,82,0,127.38563979999162,,10,127.3794682000298,127.38563979999162,127.38563979999162,0.014012099942192435,129.36442240001634,[np.float64(0.4203703703703704)],[np.float64(0.46574074074074073)],[1],[0],[0],[1.984879900002852],['target'],1,001,2025-09-30_15h37.13.656,Visual Search,,2025.1.1,60.29203045632926,2025-09-30 15h37.20.021197 +0530,
83,0,83,[np.float64(0.11574074074074074)],[np.float64(-0.08055555555555556)],[1],[0],[0],[1.4215392000041902],['target'],83,0,83,0,129.3843805999495,,10,129.37806660006754,129.3843805999495,129.3843805999495,0.013517500134184957,130.79972340003587,[np.float64(0.11574074074074074)],[np.float64(-0.08055555555555556)],[1],[0],[0],[1.4215392000041902],['target'],1,001,2025-09-30_15h37.13.656,Visual Search,,2025.1.1,60.29203045632926,2025-09-30 15h37.20.021197 +0530,
84,0,84,[np.float64(-0.23703703703703705)],[np.float64(0.03425925925925926)],[1],[0],[0],[1.3470057998783886],['target'],84,0,84,0,130.82245570002124,,10,130.81590220006183,130.82245570002124,130.82245570002124,0.015940400073304772,132.16301769996062,[np.float64(-0.23703703703703705)],[np.float64(0.03425925925925926)],[1],[0],[0],[1.3470057998783886],['target'],1,001,2025-09-30_15h37.13.656,Visual Search,,2025.1.1,60.29203045632926,2025-09-30 15h37.20.021197 +0530,
85,0,85,[np.float64(0.3731481481481482)],[np.float64(-0.10185185185185185)],[1],[0],[0],[1.3512109001167119],['target'],85,0,85,0,132.18877290003002,,10,132.18175369990058,132.18877290003002,132.18877290003002,0.018511699978262186,133.53306100005284,[np.float64(0.3731481481481482)],[np.float64(-0.10185185185185185)],[1],[0],[0],[1.3512109001167119],['target'],1,001,2025-09-30_15h37.13.656,Visual Search,,2025.1.1,60.29203045632926,2025-09-30 15h37.20.021197 +0530,
86,0,86,[np.float64(-0.22314814814814815)],[np.float64(-0.31574074074074077)],[1],[0],[0],[1.484348899917677],['target'],86,0,86,0,133.55508710001595,,10,133.5487081001047,133.55508710001595,133.55508710001595,0.015427600126713514,135.03313779993914,[np.float64(-0.22314814814814815)],[np.float64(-0.31574074074074077)],[1],[0],[0],[1.484348899917677],['target'],1,001,2025-09-30_15h37.13.656,Visual Search,,2025.1.1,60.29203045632926,2025-09-30 15h37.20.021197 +0530,
87,0,87,[np.float64(0.2537037037037037)],[np.float64(0.46574074074074073)],[1],[0],[0],[2.2488780000712723],['target'],87,0,87,0,135.0542957999278,,10,135.0481112000998,135.0542957999278,135.0542957999278,0.014813300222158432,137.29713520011865,[np.float64(0.2537037037037037)],[np.float64(0.46574074074074073)],[1],[0],[0],[2.2488780000712723],['target'],1,001,2025-09-30_15h37.13.656,Visual Search,,2025.1.1,60.29203045632926,2025-09-30 15h37.20.021197 +0530,
88,0,88,[np.float64(0.34074074074074073)],[np.float64(0.05)],[1],[0],[0],[1.7148141998331994],['target'],88,0,88,0,137.32207449991256,,10,137.31531090009958,137.32207449991256,137.32207449991256,0.01789309992454946,139.03024340001866,[np.float64(0.34074074074074073)],[np.float64(0.05)],[1],[0],[0],[1.7148141998331994],['target'],1,001,2025-09-30_15h37.13.656,Visual Search,,2025.1.1,60.29203045632926,2025-09-30 15h37.20.021197 +0530,
89,0,89,[np.float64(-0.04537037037037037)],[np.float64(-0.1685185185185185)],[1],[0],[0],[1.539377799956128],['target'],89,0,89,0,139.0471125000622,,5,139.0425575999543,139.0471125000622,139.0471125000622,0.012088200077414513,140.58201740006916,[np.float64(-0.04537037037037037)],[np.float64(-0.1685185185185185)],[1],[0],[0],[1.539377799956128],['target'],1,001,2025-09-30_15h37.13.656,Visual Search,,2025.1.1,60.29203045632926,2025-09-30 15h37.20.021197 +0530,
90,0,90,[np.float64(-0.26851851851851855)],[np.float64(-0.27314814814814814)],[1],[0],[0],[1.402336300117895],['target'],90,0,90,0,140.6026528000366,,10,140.59620100003667,140.6026528000366,140.6026528000366,0.014029900077730417,141.998631299939,[np.float64(-0.26851851851851855)],[np.float64(-0.27314814814814814)],[1],[0],[0],[1.402336300117895],['target'],1,001,2025-09-30_15h37.13.656,Visual Search,,2025.1.1,60.29203045632926,2025-09-30 15h37.20.021197 +0530,
91,0,91,[np.float64(0.08055555555555556)],[np.float64(0.31666666666666665)],[1],[0],[0],[1.504515100037679],['target'],91,0,91,0,142.0206104000099,,10,142.01345600001514,142.0206104000099,142.0206104000099,0.01466919993981719,143.51807500002906,[np.float64(0.08055555555555556)],[np.float64(0.31666666666666665)],[1],[0],[0],[1.504515100037679],['target'],1,001,2025-09-30_15h37.13.656,Visual Search,,2025.1.1,60.29203045632926,2025-09-30 15h37.20.021197 +0530,
92,0,92,[np.float64(0.28055555555555556)],[np.float64(0.2953703703703704)],[1],[0],[0],[1.3479731001425534],['target'],92,0,92,0,143.5423759999685,,10,143.53607319993898,143.5423759999685,143.5423759999685,0.0177888001780957,144.88417580001988,[np.float64(0.28055555555555556)],[np.float64(0.2953703703703704)],[1],[0],[0],[1.3479731001425534],['target'],1,001,2025-09-30_15h37.13.656,Visual Search,,2025.1.1,60.29203045632926,2025-09-30 15h37.20.021197 +0530,
93,0,93,[np.float64(0.11481481481481481)],[np.float64(0.4064814814814815)],[1],[0],[0],[1.204979000147432],['target'],93,0,93,0,144.8995389000047,,5,144.89521280000918,144.8995389000047,144.8995389000047,0.010774200083687901,146.10028939996846,[np.float64(0.11481481481481481)],[np.float64(0.4064814814814815)],[1],[0],[0],[1.204979000147432],['target'],1,001,2025-09-30_15h37.13.656,Visual Search,,2025.1.1,60.29203045632926,2025-09-30 15h37.20.021197 +0530,
94,0,94,[np.float64(-0.06388888888888888)],[np.float64(-0.23796296296296296)],[1],[0],[0],[1.3733787001110613],['target'],94,0,94,0,146.1136453000363,,5,146.10898909997195,146.1136453000363,146.1136453000363,0.00853420002385974,147.48247379995883,[np.float64(-0.06388888888888888)],[np.float64(-0.23796296296296296)],[1],[0],[0],[1.3733787001110613],['target'],1,001,2025-09-30_15h37.13.656,Visual Search,,2025.1.1,60.29203045632926,2025-09-30 15h37.20.021197 +0530,
95,0,95,[np.float64(-0.07777777777777778)],[np.float64(-0.19814814814814816)],[1],[0],[0],[1.1644296001177281],['target'],95,0,95,0,147.50453580007888,,10,147.4985412999522,147.50453580007888,147.50453580007888,0.01589030004106462,148.66310249990784,[np.float64(-0.07777777777777778)],[np.float64(-0.19814814814814816)],[1],[0],[0],[1.1644296001177281],['target'],1,001,2025-09-30_15h37.13.656,Visual Search,,2025.1.1,60.29203045632926,2025-09-30 15h37.20.021197 +0530,
96,0,96,[np.float64(0.29259259259259257)],[np.float64(0.2796296296296296)],[1],[0],[0],[1.2910571999382228],['target'],96,0,96,0,148.6793535000179,,5,148.67483259993605,148.6793535000179,148.6793535000179,0.011459799949079752,149.96597829996608,[np.float64(0.29259259259259257)],[np.float64(0.2796296296296296)],[1],[0],[0],[1.2910571999382228],['target'],1,001,2025-09-30_15h37.13.656,Visual Search,,2025.1.1,60.29203045632926,2025-09-30 15h37.20.021197 +0530,
97,0,97,[np.float64(0.4685185185185185)],[np.float64(0.06851851851851852)],[1],[0],[0],[1.6051026000641286],['target'],97,0,97,0,149.98172749998048,,5,149.97705979994498,149.98172749998048,149.98172749998048,0.010933100013062358,151.5822477999609,[np.float64(0.4685185185185185)],[np.float64(0.06851851851851852)],[1],[0],[0],[1.6051026000641286],['target'],1,001,2025-09-30_15h37.13.656,Visual Search,,2025.1.1,60.29203045632926,2025-09-30 15h37.20.021197 +0530,
98,0,98,[np.float64(0.2740740740740741)],[np.float64(0.3787037037037037)],[1],[0],[0],[1.2275477999355644],['target'],98,0,98,0,151.59501529997215,,5,151.59034330002032,151.59501529997215,151.59501529997215,0.007954400032758713,152.81800510012545,[np.float64(0.2740740740740741)],[np.float64(0.3787037037037037)],[1],[0],[0],[1.2275477999355644],['target'],1,001,2025-09-30_15h37.13.656,Visual Search,,2025.1.1,60.29203045632926,2025-09-30 15h37.20.021197 +0530,
99,0,99,[np.float64(0.3351851851851852)],[np.float64(-0.11666666666666667)],[1],[0],[0],[1.4393174001015723],['target'],99,0,99,0,152.8332217000425,,5,152.8284400999546,152.8332217000425,152.8332217000425,0.010247200028970838,154.2678638000507,[np.float64(0.3351851851851852)],[np.float64(-0.11666666666666667)],[1],[0],[0],[1.4393174001015723],['target'],1,001,2025-09-30_15h37.13.656,Visual Search,,2025.1.1,60.29203045632926,2025-09-30 15h37.20.021197 +0530,
100,0,100,[np.float64(-0.2824074074074074)],[np.float64(0.26666666666666666)],[1],[0],[0],[1.4775415000040084],['target'],100,0,100,0,154.29431889997795,,10,154.28773019998334,154.29431889997795,154.29431889997795,0.01969390013255179,155.76536120008677,[np.float64(-0.2824074074074074)],[np.float64(0.26666666666666666)],[1],[0],[0],[1.4775415000040084],['target'],1,001,2025-09-30_15h37.13.656,Visual Search,,2025.1.1,60.29203045632926,2025-09-30 15h37.20.021197 +0530,
101,0,101,[np.float64(-0.275)],[np.float64(-0.07592592592592592)],[1],[0],[0],[1.2424936001189053],['target'],101,0,101,0,155.7784079001285,,5,155.77405259991065,155.7784079001285,155.7784079001285,0.00851439987309277,157.0166515999008,[np.float64(-0.275)],[np.float64(-0.07592592592592592)],[1],[0],[0],[1.2424936001189053],['target'],1,001,2025-09-30_15h37.13.656,Visual Search,,2025.1.1,60.29203045632926,2025-09-30 15h37.20.021197 +0530,
102,0,102,[np.float64(-0.21574074074074073)],[np.float64(0.25925925925925924)],[1],[0],[0],[1.2562893000431359],['target'],102,0,102,0,157.0309427001048,,5,157.02622170001268,157.0309427001048,157.0309427001048,0.009391499916091561,158.2826046999544,[np.float64(-0.21574074074074073)],[np.float64(0.25925925925925924)],[1],[0],[0],[1.2562893000431359],['target'],1,001,2025-09-30_15h37.13.656,Visual Search,,2025.1.1,60.29203045632926,2025-09-30 15h37.20.021197 +0530,
103,0,103,[np.float64(0.075)],[np.float64(0.06759259259259259)],[1],[0],[0],[1.5250450000166893],['target'],103,0,103,0,158.29730600002222,,5,158.2926529000979,158.29730600002222,158.29730600002222,0.009892300004139543,159.81780610000715,[np.float64(0.075)],[np.float64(0.06759259259259259)],[1],[0],[0],[1.5250450000166893],['target'],1,001,2025-09-30_15h37.13.656,Visual Search,,2025.1.1,60.29203045632926,2025-09-30 15h37.20.021197 +0530,
104,0,104,[np.float64(-0.06574074074074074)],[np.float64(-0.3592592592592593)],[1],[0],[0],[1.6403167999815196],['target'],104,0,104,0,159.83168780012056,,5,159.8271771001164,159.83168780012056,159.83168780012056,0.009193900041282177,161.46761479997076,[np.float64(-0.06574074074074074)],[np.float64(-0.3592592592592593)],[1],[0],[0],[1.6403167999815196],['target'],1,001,2025-09-30_15h37.13.656,Visual Search,,2025.1.1,60.29203045632926,2025-09-30 15h37.20.021197 +0530,
105,0,105,[np.float64(-0.38981481481481484)],[np.float64(-0.05555555555555555)],[1],[0],[0],[1.4515339001081884],['target'],105,0,105,0,161.49039750010706,,10,161.48382279998623,161.49039750010706,161.49039750010706,0.016037499997764826,162.9354632999748,[np.float64(-0.38981481481481484)],[np.float64(-0.05555555555555555)],[1],[0],[0],[1.4515339001081884],['target'],1,001,2025-09-30_15h37.13.656,Visual Search,,2025.1.1,60.29203045632926,2025-09-30 15h37.20.021197 +0530,
106,0,106,[np.float64(-0.05185185185185185)],[np.float64(0.22407407407407406)],[1],[0],[0],[1.1482585000339895],['target'],106,0,106,0,162.9575622000266,,10,162.95080720004626,162.9575622000266,162.9575622000266,0.015135099878534675,164.09914930001833,[np.float64(-0.05185185185185185)],[np.float64(0.22407407407407406)],[1],[0],[0],[1.1482585000339895],['target'],1,001,2025-09-30_15h37.13.656,Visual Search,,2025.1.1,60.29203045632926,2025-09-30 15h37.20.021197 +0530,
107,0,107,[np.float64(0.013888888888888888)],[np.float64(-0.40370370370370373)],[1],[0],[0],[1.5167772001586854],['target'],107,0,107,0,164.1198525999207,,10,164.11340950010344,164.1198525999207,164.1198525999207,0.014098900137469172,165.63028330006637,[np.float64(0.013888888888888888)],[np.float64(-0.40370370370370373)],[1],[0],[0],[1.5167772001586854],['target'],1,001,2025-09-30_15h37.13.656,Visual Search,,2025.1.1,60.29203045632926,2025-09-30 15h37.20.021197 +0530,
108,0,108,[np.float64(0.40555555555555556)],[np.float64(0.16574074074074074)],[1],[0],[0],[1.3087325999513268],['target'],108,0,108,0,165.64407419995405,,5,165.63899850007147,165.64407419995405,165.64407419995405,0.008526799967512488,166.94779999996535,[np.float64(0.40555555555555556)],[np.float64(0.16574074074074074)],[1],[0],[0],[1.3087325999513268],['target'],1,001,2025-09-30_15h37.13.656,Visual Search,,2025.1.1,60.29203045632926,2025-09-30 15h37.20.021197 +0530,
109,0,109,[np.float64(0.4861111111111111)],[np.float64(-0.48333333333333334)],[1],[0],[0],[1.562611100031063],['target'],109,0,109,0,166.96072129998356,,5,166.95544179994613,166.96072129998356,166.96072129998356,0.007533099967986345,168.51815610006452,[np.float64(0.4861111111111111)],[np.float64(-0.48333333333333334)],[1],[0],[0],[1.562611100031063],['target'],1,001,2025-09-30_15h37.13.656,Visual Search,,2025.1.1,60.29203045632926,2025-09-30 15h37.20.021197 +0530,
110,0,110,[np.float64(0.2037037037037037)],[np.float64(-0.20555555555555555)],[1],[0],[0],[1.4333751001395285],['target'],110,0,110,0,168.54078139993362,,10,168.53376629995182,168.54078139993362,168.54078139993362,0.01543140015564859,169.96724399994127,[np.float64(0.2037037037037037)],[np.float64(-0.20555555555555555)],[1],[0],[0],[1.4333751001395285],['target'],1,001,2025-09-30_15h37.13.656,Visual Search,,2025.1.1,60.29203045632926,2025-09-30 15h37.20.021197 +0530,
111,0,111,[np.float64(-0.24074074074074073)],[np.float64(-0.05648148148148148)],[1],[0],[0],[1.205407400149852],['target'],111,0,111,0,169.98250790010206,,5,169.97796880011447,169.98250790010206,169.98250790010206,0.010523200035095215,171.18348030000925,[np.float64(-0.24074074074074073)],[np.float64(-0.05648148148148148)],[1],[0],[0],[1.205407400149852],['target'],1,001,2025-09-30_15h37.13.656,Visual Search,,2025.1.1,60.29203045632926,2025-09-30 15h37.20.021197 +0530,
112,0,112,[np.float64(-0.3527777777777778)],[np.float64(-0.017592592592592594)],[1],[0],[0],[1.2396251999307424],['target'],112,0,112,0,171.1985981001053,,5,171.19390509999357,171.1985981001053,171.1985981001053,0.010236999951303005,172.433636700036,[np.float64(-0.3527777777777778)],[np.float64(-0.017592592592592594)],[1],[0],[0],[1.2396251999307424],['target'],1,001,2025-09-30_15h37.13.656,Visual Search,,2025.1.1,60.29203045632926,2025-09-30 15h37.20.021197 +0530,
113,0,113,[np.float64(0.3287037037037037)],[np.float64(0.3175925925925926)],[1],[0],[0],[1.3899203001055866],['target'],113,0,113,0,172.44868019991554,,5,172.44304200005718,172.44868019991554,172.44868019991554,0.00920250010676682,173.83309220010415,[np.float64(0.3287037037037037)],[np.float64(0.3175925925925926)],[1],[0],[0],[1.3899203001055866],['target'],1,001,2025-09-30_15h37.13.656,Visual Search,,2025.1.1,60.29203045632926,2025-09-30 15h37.20.021197 +0530,
114,0,114,[np.float64(-0.4527777777777778)],[np.float64(-0.30185185185185187)],[1],[0],[0],[1.4508226001635194],[None],114,0,114,0,173.8551839001011,,10,173.84876370010898,173.8551839001011,173.8551839001011,0.015440999995917082,175.29968750011176,[np.float64(-0.4527777777777778)],[np.float64(-0.30185185185185187)],[1],[0],[0],[1.4508226001635194],[None],1,001,2025-09-30_15h37.13.656,Visual Search,,2025.1.1,60.29203045632926,2025-09-30 15h37.20.021197 +0530,
115,0,115,[np.float64(0.45092592592592595)],[np.float64(0.2351851851851852)],[1],[0],[0],[1.3059872000012547],[None],115,0,115,0,175.31373920012265,,5,175.30904170009308,175.31373920012265,175.31373920012265,0.009169000200927258,176.6151493000798,[np.float64(0.45092592592592595)],[np.float64(0.2351851851851852)],[1],[0],[0],[1.3059872000012547],[None],1,001,2025-09-30_15h37.13.656,Visual Search,,2025.1.1,60.29203045632926,2025-09-30 15h37.20.021197 +0530,
116,0,116,[np.float64(0.39351851851851855)],[np.float64(-0.002777777777777778)],[1],[0],[0],[1.185283500002697],['target'],116,0,116,0,176.63743970007636,,10,176.63078709994443,176.63743970007636,176.63743970007636,0.015452699968591332,177.81615779991262,[np.float64(0.39351851851851855)],[np.float64(-0.002777777777777778)],[1],[0],[0],[1.185283500002697],['target'],1,001,2025-09-30_15h37.13.656,Visual Search,,2025.1.1,60.29203045632926,2025-09-30 15h37.20.021197 +0530,
117,0,117,[np.float64(-0.007407407407407408)],[np.float64(0.2898148148148148)],[1],[0],[0],[1.316429500002414],['target'],117,0,117,0,177.8382703999523,,10,177.8318558000028,177.8382703999523,177.8382703999523,0.015526100061833858,179.1483895999845,[np.float64(-0.007407407407407408)],[np.float64(0.2898148148148148)],[1],[0],[0],[1.316429500002414],['target'],1,001,2025-09-30_15h37.13.656,Visual Search,,2025.1.1,60.29203045632926,2025-09-30 15h37.20.021197 +0530,
118,0,118,[np.float64(0.3055555555555556)],[np.float64(0.08981481481481482)],[1],[0],[0],[1.4851145001593977],['target'],118,0,118,0,179.17112200008705,,10,179.16481220000423,179.17112200008705,179.17112200008705,0.016219499986618757,180.65004609990865,[np.float64(0.3055555555555556)],[np.float64(0.08981481481481482)],[1],[0],[0],[1.4851145001593977],['target'],1,001,2025-09-30_15h37.13.656,Visual Search,,2025.1.1,60.29203045632926,2025-09-30 15h37.20.021197 +0530,
119,0,119,[np.float64(0.3277777777777778)],[np.float64(0.3296296296296296)],[1],[0],[0],[1.3573590000160038],['target'],119,0,119,0,180.663416699972,,5,180.65889610000886,180.663416699972,180.663416699972,0.008669199887663126,182.01635010004975,[np.float64(0.3277777777777778)],[np.float64(0.3296296296296296)],[1],[0],[0],[1.3573590000160038],['target'],1,001,2025-09-30_15h37.13.656,Visual Search,,2025.1.1,60.29203045632926,2025-09-30 15h37.20.021197 +0530,
120,0,120,[np.float64(0.4638888888888889)],[np.float64(-0.018518518518518517)],[1],[0],[0],[1.6679626998957247],['target'],120,0,120,0,182.03806470008567,,10,182.0308539001271,182.03806470008567,182.03806470008567,0.014342899899929762,183.69891340006143,[np.float64(0.4638888888888889)],[np.float64(-0.018518518518518517)],[1],[0],[0],[1.6679626998957247],['target'],1,001,2025-09-30_15h37.13.656,Visual Search,,2025.1.1,60.29203045632926,2025-09-30 15h37.20.021197 +0530,
121,0,121,[np.float64(0.44907407407407407)],[np.float64(0.425)],[1],[0],[0],[1.3638510999735445],['target'],121,0,121,0,183.72123580006883,,10,183.7152092999313,183.72123580006883,183.72123580006883,0.01610479992814362,185.07911040005274,[np.float64(0.44907407407407407)],[np.float64(0.425)],[1],[0],[0],[1.3638510999735445],['target'],1,001,2025-09-30_15h37.13.656,Visual Search,,2025.1.1,60.29203045632926,2025-09-30 15h37.20.021197 +0530,
122,0,122,[np.float64(-0.44814814814814813)],[np.float64(-0.4601851851851852)],[1],[0],[0],[1.487700599944219],['target'],122,0,122,0,185.10055360011756,,10,185.09370639990084,185.10055360011756,185.10055360011756,0.014515900053083897,186.58153719990514,[np.float64(-0.44814814814814813)],[np.float64(-0.4601851851851852)],[1],[0],[0],[1.487700599944219],['target'],1,001,2025-09-30_15h37.13.656,Visual Search,,2025.1.1,60.29203045632926,2025-09-30 15h37.20.021197 +0530,
123,0,123,[np.float64(-0.475)],[np.float64(0.13333333333333333)],[1],[0],[0],[1.2504251999780536],['target'],123,0,123,0,186.60291270003654,,10,186.59692019992508,186.60291270003654,186.60291270003654,0.015180299989879131,187.847414100077,[np.float64(-0.475)],[np.float64(0.13333333333333333)],[1],[0],[0],[1.2504251999780536],['target'],1,001,2025-09-30_15h37.13.656,Visual Search,,2025.1.1,60.29203045632926,2025-09-30 15h37.20.021197 +0530,
124,0,124,[np.float64(0.08981481481481482)],[np.float64(-0.4675925925925926)],[1],[0],[0],[1.7098417000379413],['target'],124,0,124,0,187.8603233001195,,5,187.85470609995537,187.8603233001195,187.8603233001195,0.0071465999353677034,189.56465449999087,[np.float64(0.08981481481481482)],[np.float64(-0.4675925925925926)],[1],[0],[0],[1.7098417000379413],['target'],1,001,2025-09-30_15h37.13.656,Visual Search,,2025.1.1,60.29203045632926,2025-09-30 15h37.20.021197 +0530,
125,0,125,[np.float64(0.33055555555555555)],[np.float64(-0.1037037037037037)],[1],[0],[0],[2.491377499885857],['target'],125,0,125,0,189.57954320008866,,5,189.57529489998706,189.57954320008866,189.57954320008866,0.01044720015488565,192.06680219992995,[np.float64(0.33055555555555555)],[np.float64(-0.1037037037037037)],[1],[0],[0],[2.491377499885857],['target'],1,001,2025-09-30_15h37.13.656,Visual Search,,2025.1.1,60.29203045632926,2025-09-30 15h37.20.021197 +0530,
126,0,126,[np.float64(-0.487962962962963)],[np.float64(0.33240740740740743)],[1],[0],[0],[1.7016406001057476],['target'],126,0,126,0,192.08212899998762,,5,192.07771919993684,192.08212899998762,192.08212899998762,0.010735500138252974,193.77951920009218,[np.float64(-0.487962962962963)],[np.float64(0.33240740740740743)],[1],[0],[0],[1.7016406001057476],['target'],1,001,2025-09-30_15h37.13.656,Visual Search,,2025.1.1,60.29203045632926,2025-09-30 15h37.20.021197 +0530,
127,0,127,[np.float64(-0.1925925925925926)],[np.float64(-0.30462962962962964)],[1],[0],[0],[1.3747230998706073],['target'],127,0,127,0,193.7974225000944,,5,193.79174900008366,193.7974225000944,193.7974225000944,0.01201450009830296,195.16655210009776,[np.float64(-0.1925925925925926)],[np.float64(-0.30462962962962964)],[1],[0],[0],[1.3747230998706073],['target'],1,001,2025-09-30_15h37.13.656,Visual Search,,2025.1.1,60.29203045632926,2025-09-30 15h37.20.021197 +0530,
128,0,128,[np.float64(0.22314814814814815)],[np.float64(-0.04722222222222222)],[1],[0],[0],[1.1665489000733942],['target'],128,0,128,0,195.18705049995333,,10,195.1808355001267,195.18705049995333,195.18705049995333,0.014137300197035074,196.34745949995704,[np.float64(0.22314814814814815)],[np.float64(-0.04722222222222222)],[1],[0],[0],[1.1665489000733942],['target'],1,001,2025-09-30_15h37.13.656,Visual Search,,2025.1.1,60.29203045632926,2025-09-30 15h37.20.021197 +0530,
129,0,129,[np.float64(-0.1425925925925926)],[np.float64(0.38796296296296295)],[1],[0],[0],[1.6167868999764323],['target'],129,0,129,0,196.36759839998558,,10,196.361559699988,196.36759839998558,196.36759839998558,0.013949899934232235,197.97842329996638,[np.float64(-0.1425925925925926)],[np.float64(0.38796296296296295)],[1],[0],[0],[1.6167868999764323],['target'],1,001,2025-09-30_15h37.13.656,Visual Search,,2025.1.1,60.29203045632926,2025-09-30 15h37.20.021197 +0530,
130,0,130,[np.float64(-0.38055555555555554)],[np.float64(-0.046296296296296294)],[1],[0],[0],[1.4061233999673277],['target'],130,0,130,0,197.99383080005646,,5,197.9893499999307,197.99383080005646,197.99383080005646,0.0107744000852108,199.3955888999626,[np.float64(-0.38055555555555554)],[np.float64(-0.046296296296296294)],[1],[0],[0],[1.4061233999673277],['target'],1,001,2025-09-30_15h37.13.656,Visual Search,,2025.1.1,60.29203045632926,2025-09-30 15h37.20.021197 +0530,
131,0,131,[np.float64(0.15925925925925927)],[np.float64(-0.20925925925925926)],[1],[0],[0],[1.4753012999426574],['target'],131,0,131,0,199.41174799995497,,5,199.40720529993996,199.41174799995497,199.41174799995497,0.01142310001887381,200.882613300113,[np.float64(0.15925925925925927)],[np.float64(-0.20925925925925926)],[1],[0],[0],[1.4753012999426574],['target'],1,001,2025-09-30_15h37.13.656,Visual Search,,2025.1.1,60.29203045632926,2025-09-30 15h37.20.021197 +0530,
132,0,132,[np.float64(-0.04351851851851852)],[np.float64(-0.08611111111111111)],[1],[0],[0],[1.4724157999735326],['target'],132,0,132,0,200.89590519992635,,5,200.89154230011627,200.89590519992635,200.89590519992635,0.008751600049436092,202.36402660002932,[np.float64(-0.04351851851851852)],[np.float64(-0.08611111111111111)],[1],[0],[0],[1.4724157999735326],['target'],1,001,2025-09-30_15h37.13.656,Visual Search,,2025.1.1,60.29203045632926,2025-09-30 15h37.20.021197 +0530,
133,0,133,[np.float64(-0.2462962962962963)],[np.float64(-0.32037037037037036)],[1],[0],[0],[1.3538363999687135],['target'],133,0,133,0,202.38585070008412,,10,202.37907529994845,202.38585070008412,202.38585070008412,0.014938399894163013,203.73300669994205,[np.float64(-0.2462962962962963)],[np.float64(-0.32037037037037036)],[1],[0],[0],[1.3538363999687135],['target'],1,001,2025-09-30_15h37.13.656,Visual Search,,2025.1.1,60.29203045632926,2025-09-30 15h37.20.021197 +0530,
134,0,134,[np.float64(-0.21203703703703702)],[np.float64(0.16296296296296298)],[1],[0],[0],[1.1560739998240024],['target'],134,0,134,0,203.74742579995655,,5,203.7427294999361,203.74742579995655,203.74742579995655,0.00953099993057549,204.89888880006038,[np.float64(-0.21203703703703702)],[np.float64(0.16296296296296298)],[1],[0],[0],[1.1560739998240024],['target'],1,001,2025-09-30_15h37.13.656,Visual Search,,2025.1.1,60.29203045632926,2025-09-30 15h37.20.021197 +0530,
135,0,135,[np.float64(-0.35833333333333334)],[np.float64(0.36944444444444446)],[1],[0],[0],[1.5380476999562234],['target'],135,0,135,0,204.91243969998322,,5,204.9072680999525,204.91243969998322,204.91243969998322,0.00823940010741353,206.4454381999094,[np.float64(-0.35833333333333334)],[np.float64(0.36944444444444446)],[1],[0],[0],[1.5380476999562234],['target'],1,001,2025-09-30_15h37.13.656,Visual Search,,2025.1.1,60.29203045632926,2025-09-30 15h37.20.021197 +0530,
136,0,136,[np.float64(0.08796296296296297)],[np.float64(-0.3537037037037037)],[1],[0],[0],[2.1241206999402493],['target'],136,0,136,0,206.46766770002432,,10,206.46096589998342,206.46766770002432,206.46766770002432,0.015324800042435527,208.58520910004154,[np.float64(0.08796296296296297)],[np.float64(-0.3537037037037037)],[1],[0],[0],[2.1241206999402493],['target'],1,001,2025-09-30_15h37.13.656,Visual Search,,2025.1.1,60.29203045632926,2025-09-30 15h37.20.021197 +0530,
137,0,137,[np.float64(0.3814814814814815)],[np.float64(-0.3861111111111111)],[1],[0],[0],[1.7610541998874396],['target'],137,0,137,0,208.60751929995604,,10,208.60111299995333,208.60751929995604,208.60751929995604,0.01567850005812943,210.36228080000728,[np.float64(0.3814814814814815)],[np.float64(-0.3861111111111111)],[1],[0],[0],[1.7610541998874396],['target'],1,001,2025-09-30_15h37.13.656,Visual Search,,2025.1.1,60.29203045632926,2025-09-30 15h37.20.021197 +0530,
138,0,138,[np.float64(0.29814814814814816)],[np.float64(0.2898148148148148)],[1],[0],[0],[1.70362629997544],['target'],138,0,138,0,210.38623850001022,,10,210.37908539990894,210.38623850001022,210.38623850001022,0.01657300000078976,212.08287700009532,[np.float64(0.29814814814814816)],[np.float64(0.2898148148148148)],[1],[0],[0],[1.70362629997544],['target'],1,001,2025-09-30_15h37.13.656,Visual Search,,2025.1.1,60.29203045632926,2025-09-30 15h37.20.021197 +0530,
139,0,139,[np.float64(0.24722222222222223)],[np.float64(0.462037037037037)],[1],[0],[0],[1.1393018998205662],['target'],139,0,139,0,212.09662480000407,,5,212.09233950008638,212.09662480000407,212.09662480000407,0.008889500051736832,213.23172269994393,[np.float64(0.24722222222222223)],[np.float64(0.462037037037037)],[1],[0],[0],[1.1393018998205662],['target'],1,001,2025-09-30_15h37.13.656,Visual Search,,2025.1.1,60.29203045632926,2025-09-30 15h37.20.021197 +0530,
140,0,140,[np.float64(0.2833333333333333)],[np.float64(0.2212962962962963)],[1],[0],[0],[1.3351175000425428],['target'],140,0,140,0,213.25203710002825,,10,213.2456318999175,213.25203710002825,213.25203710002825,0.013779900036752224,214.58083579991944,[np.float64(0.2833333333333333)],[np.float64(0.2212962962962963)],[1],[0],[0],[1.3351175000425428],['target'],1,001,2025-09-30_15h37.13.656,Visual Search,,2025.1.1,60.29203045632926,2025-09-30 15h37.20.021197 +0530,
141,0,141,[np.float64(0.19537037037037036)],[np.float64(-0.41759259259259257)],[1],[0],[0],[1.742310900008306],['target'],141,0,141,0,214.59648160007782,,5,214.59168560011312,214.59648160007782,214.59648160007782,0.010679499944671988,216.3341113999486,[np.float64(0.19537037037037036)],[np.float64(-0.41759259259259257)],[1],[0],[0],[1.742310900008306],['target'],1,001,2025-09-30_15h37.13.656,Visual Search,,2025.1.1,60.29203045632926,2025-09-30 15h37.20.021197 +0530,
142,0,142,[np.float64(-0.3861111111111111)],[np.float64(-0.1685185185185185)],[1],[0],[0],[1.097196999937296],['target'],142,0,142,0,216.35610319999978,,10,216.34958159993403,216.35610319999978,216.35610319999978,0.015281099826097488,217.44685330009088,[np.float64(-0.3861111111111111)],[np.float64(-0.1685185185185185)],[1],[0],[0],[1.097196999937296],['target'],1,001,2025-09-30_15h37.13.656,Visual Search,,2025.1.1,60.29203045632926,2025-09-30 15h37.20.021197 +0530,
143,0,143,[np.float64(0.41574074074074074)],[np.float64(-0.11574074074074074)],[1],[0],[0],[1.7369084998499602],['target'],143,0,143,0,217.4680170000065,,10,217.46156980004162,217.4680170000065,217.4680170000065,0.014570600120350718,219.1985607999377,[np.float64(0.41574074074074074)],[np.float64(-0.11574074074074074)],[1],[0],[0],[1.7369084998499602],['target'],1,001,2025-09-30_15h37.13.656,Visual Search,,2025.1.1,60.29203045632926,2025-09-30 15h37.20.021197 +0530,
144,0,144,[np.float64(0.04537037037037037)],[np.float64(0.06944444444444445)],[1],[0],[0],[1.598693500040099],['target'],144,0,144,0,219.2191059999168,,10,219.21269050007686,219.2191059999168,219.2191059999168,0.013969199964776635,220.81148019991815,[np.float64(0.04537037037037037)],[np.float64(0.06944444444444445)],[1],[0],[0],[1.598693500040099],['target'],1,001,2025-09-30_15h37.13.656,Visual Search,,2025.1.1,60.29203045632926,2025-09-30 15h37.20.021197 +0530,
145,0,145,[np.float64(0.2462962962962963)],[np.float64(-0.42685185185185187)],[1],[0],[0],[2.279348599957302],[None],145,0,145,0,220.82685040007345,,5,220.82046380010433,220.82685040007345,220.82685040007345,0.008817400084808469,223.0999201000668,[np.float64(0.2462962962962963)],[np.float64(-0.42685185185185187)],[1],[0],[0],[2.279348599957302],[None],1,001,2025-09-30_15h37.13.656,Visual Search,,2025.1.1,60.29203045632926,2025-09-30 15h37.20.021197 +0530,
146,0,146,[np.float64(-0.2601851851851852)],[np.float64(0.012962962962962963)],[1],[0],[0],[1.2204099998343736],['target'],146,0,146,0,223.11452000006102,,5,223.11025239992887,223.11452000006102,223.11452000006102,0.010152100119739771,224.33074020012282,[np.float64(-0.2601851851851852)],[np.float64(0.012962962962962963)],[1],[0],[0],[1.2204099998343736],['target'],1,001,2025-09-30_15h37.13.656,Visual Search,,2025.1.1,60.29203045632926,2025-09-30 15h37.20.021197 +0530,
147,0,147,[np.float64(0.13425925925925927)],[np.float64(0.2324074074074074)],[1],[0],[0],[1.4258413000497967],['target'],147,0,147,0,224.34375090012327,,5,224.33905640011653,224.34375090012327,224.34375090012327,0.008191500091925263,225.76500419992954,[np.float64(0.13425925925925927)],[np.float64(0.2324074074074074)],[1],[0],[0],[1.4258413000497967],['target'],1,001,2025-09-30_15h37.13.656,Visual Search,,2025.1.1,60.29203045632926,2025-09-30 15h37.20.021197 +0530,
148,0,148,[np.float64(0.06388888888888888)],[np.float64(-0.325)],[1],[0],[0],[1.3825289998203516],['target'],148,0,148,0,225.7897761000786,,10,225.78282240009867,225.7897761000786,225.7897761000786,0.017661100020632148,227.16544759995304,[np.float64(0.06388888888888888)],[np.float64(-0.325)],[1],[0],[0],[1.3825289998203516],['target'],1,001,2025-09-30_15h37.13.656,Visual Search,,2025.1.1,60.29203045632926,2025-09-30 15h37.20.021197 +0530,
149,0,149,[np.float64(-0.05555555555555555)],[np.float64(0.11388888888888889)],[1],[0],[0],[1.2725937999784946],['target'],149,0,149,0,227.17952720005997,,5,227.17450840002857,227.17952720005997,227.17952720005997,0.008861699840053916,228.44720469997264,[np.float64(-0.05555555555555555)],[np.float64(0.11388888888888889)],[1],[0],[0],[1.2725937999784946],['target'],1,001,2025-09-30_15h37.13.656,Visual Search,,2025.1.1,60.29203045632926,2025-09-30 15h37.20.021197 +0530,
150,0,150,[np.float64(0.30925925925925923)],[np.float64(0.41388888888888886)],[1],[0],[0],[1.9737792999949306],['target'],150,0,150,0,228.46063739992678,,5,228.45606740005314,228.46063739992678,228.46063739992678,0.008722699945792556,230.4300289999228,[np.float64(0.30925925925925923)],[np.float64(0.41388888888888886)],[1],[0],[0],[1.9737792999949306],['target'],1,001,2025-09-30_15h37.13.656,Visual Search,,2025.1.1,60.29203045632926,2025-09-30 15h37.20.021197 +0530,
151,0,151,[np.float64(0.3648148148148148)],[np.float64(-0.4527777777777778)],[1],[0],[0],[1.9040792998857796],['target'],151,0,151,0,230.45234200009145,,10,230.44593199994415,230.45234200009145,230.45234200009145,0.01539700012654066,232.3501160000451,[np.float64(0.3648148148148148)],[np.float64(-0.4527777777777778)],[1],[0],[0],[1.9040792998857796],['target'],1,001,2025-09-30_15h37.13.656,Visual Search,,2025.1.1,60.29203045632926,2025-09-30 15h37.20.021197 +0530,
152,0,152,[np.float64(0.41388888888888886)],[np.float64(0.0824074074074074)],[1],[0],[0],[2.189363299869001],['target'],152,0,152,0,232.36586349993013,,5,232.36128770001233,232.36586349993013,232.36586349993013,0.01097860001027584,234.5507624000311,[np.float64(0.41388888888888886)],[np.float64(0.0824074074074074)],[1],[0],[0],[2.189363299869001],['target'],1,001,2025-09-30_15h37.13.656,Visual Search,,2025.1.1,60.29203045632926,2025-09-30 15h37.20.021197 +0530,
153,0,153,[np.float64(-0.1648148148148148)],[np.float64(0.29814814814814816)],[1],[0],[0],[1.2501018000766635],['target'],153,0,153,0,234.5725090999622,,10,234.5663550000172,234.5725090999622,234.5725090999622,0.015413899905979633,235.81654880009592,[np.float64(-0.1648148148148148)],[np.float64(0.29814814814814816)],[1],[0],[0],[1.2501018000766635],['target'],1,001,2025-09-30_15h37.13.656,Visual Search,,2025.1.1,60.29203045632926,2025-09-30 15h37.20.021197 +0530,
154,0,154,[np.float64(0.12962962962962962)],[np.float64(-0.43703703703703706)],[1],[0],[0],[1.484199000056833],['target'],154,0,154,0,235.83815800002776,,10,235.83093650010414,235.83815800002776,235.83815800002776,0.01420379988849163,237.31523680011742,[np.float64(0.12962962962962962)],[np.float64(-0.43703703703703706)],[1],[0],[0],[1.484199000056833],['target'],1,001,2025-09-30_15h37.13.656,Visual Search,,2025.1.1,60.29203045632926,2025-09-30 15h37.20.021197 +0530,
155,0,155,[np.float64(0.041666666666666664)],[np.float64(-0.44074074074074077)],[1],[0],[0],[1.2874531999696046],['target'],155,0,155,0,237.328808600083,,5,237.32429859996773,237.328808600083,237.328808600083,0.00886610010638833,238.61187270004302,[np.float64(0.041666666666666664)],[np.float64(-0.44074074074074077)],[1],[0],[0],[1.2874531999696046],['target'],1,001,2025-09-30_15h37.13.656,Visual Search,,2025.1.1,60.29203045632926,2025-09-30 15h37.20.021197 +0530,
156,0,156,[np.float64(0.4462962962962963)],[np.float64(0.4583333333333333)],[1],[0],[0],[1.5777022999245673],['target'],156,0,156,0,238.62633020011708,,5,238.62187370005995,238.62633020011708,238.62633020011708,0.009801599895581603,240.19966730009764,[np.float64(0.4462962962962963)],[np.float64(0.4583333333333333)],[1],[0],[0],[1.5777022999245673],['target'],1,001,2025-09-30_15h37.13.656,Visual Search,,2025.1.1,60.29203045632926,2025-09-30 15h37.20.021197 +0530,
157,0,157,[np.float64(0.2759259259259259)],[np.float64(0.4444444444444444)],[1],[0],[0],[1.1924684999976307],['target'],157,0,157,0,240.2126947999932,,5,240.20787069993094,240.2126947999932,240.2126947999932,0.00805679988116026,241.40044289990328,[np.float64(0.2759259259259259)],[np.float64(0.4444444444444444)],[1],[0],[0],[1.1924684999976307],['target'],1,001,2025-09-30_15h37.13.656,Visual Search,,2025.1.1,60.29203045632926,2025-09-30 15h37.20.021197 +0530,
158,0,158,[np.float64(0.23981481481481481)],[np.float64(0.4537037037037037)],[1],[0],[0],[1.3213796000927687],[None],158,0,158,0,241.41646980005316,,5,241.41207679989748,241.41646980005316,241.41646980005316,0.011462699854746461,242.73356060008518,[np.float64(0.23981481481481481)],[np.float64(0.4537037037037037)],[1],[0],[0],[1.3213796000927687],[None],1,001,2025-09-30_15h37.13.656,Visual Search,,2025.1.1,60.29203045632926,2025-09-30 15h37.20.021197 +0530,
159,0,159,[np.float64(0.12037037037037036)],[np.float64(-0.1675925925925926)],[1],[0],[0],[1.4664312000386417],['target'],159,0,159,0,242.7563066999428,,10,242.7501115000341,242.7563066999428,242.7563066999428,0.01637470000423491,244.21674629999325,[np.float64(0.12037037037037036)],[np.float64(-0.1675925925925926)],[1],[0],[0],[1.4664312000386417],['target'],1,001,2025-09-30_15h37.13.656,Visual Search,,2025.1.1,60.29203045632926,2025-09-30 15h37.20.021197 +0530,
160,0,160,[np.float64(0.325)],[np.float64(-0.1259259259259259)],[1],[0],[0],[1.318641799967736],['target'],160,0,160,0,244.23811740009114,,10,244.23137980001047,244.23811740009114,244.23811740009114,0.014432699885219336,245.55011650011875,[np.float64(0.325)],[np.float64(-0.1259259259259259)],[1],[0],[0],[1.318641799967736],['target'],1,001,2025-09-30_15h37.13.656,Visual Search,,2025.1.1,60.29203045632926,2025-09-30 15h37.20.021197 +0530,
161,0,161,[np.float64(0.40370370370370373)],[np.float64(0.262037037037037)],[1],[0],[0],[1.4066149999853224],['target'],161,0,161,0,245.564178599976,,5,245.55973169999197,245.564178599976,245.564178599976,0.009412300074473023,246.96644260012545,[np.float64(0.40370370370370373)],[np.float64(0.262037037037037)],[1],[0],[0],[1.4066149999853224],['target'],1,001,2025-09-30_15h37.13.656,Visual Search,,2025.1.1,60.29203045632926,2025-09-30 15h37.20.021197 +0530,
162,0,162,[np.float64(-0.03611111111111111)],[np.float64(0.22685185185185186)],[1],[0],[0],[1.5005320000927895],['target'],162,0,162,0,246.9872379999142,,10,246.9810444000177,246.9872379999142,246.9872379999142,0.014446199871599674,248.48167810006998,[np.float64(-0.03611111111111111)],[np.float64(0.22685185185185186)],[1],[0],[0],[1.5005320000927895],['target'],1,001,2025-09-30_15h37.13.656,Visual Search,,2025.1.1,60.29203045632926,2025-09-30 15h37.20.021197 +0530,
163,0,163,[np.float64(-0.15833333333333333)],[np.float64(-0.2564814814814815)],[1],[0],[0],[1.3389394998084754],['target'],163,0,163,0,248.49509209999815,,5,248.49097239994444,248.49509209999815,248.49509209999815,0.009072699816897511,249.82998850010335,[np.float64(-0.15833333333333333)],[np.float64(-0.2564814814814815)],[1],[0],[0],[1.3389394998084754],['target'],1,001,2025-09-30_15h37.13.656,Visual Search,,2025.1.1,60.29203045632926,2025-09-30 15h37.20.021197 +0530,
164,0,164,[np.float64(-0.33425925925925926)],[np.float64(0.2722222222222222)],[1],[0],[0],[1.6016243998892605],['target'],164,0,164,0,249.8507658999879,,10,249.84476030012593,249.8507658999879,249.8507658999879,0.014664999907836318,251.44646060001105,[np.float64(-0.33425925925925926)],[np.float64(0.2722222222222222)],[1],[0],[0],[1.6016243998892605],['target'],1,001,2025-09-30_15h37.13.656,Visual Search,,2025.1.1,60.29203045632926,2025-09-30 15h37.20.021197 +0530,
165,0,165,[np.float64(-0.18333333333333332)],[np.float64(-0.3212962962962963)],[1],[0],[0],[2.1704156000632793],['target'],165,0,165,0,251.4661501001101,,10,251.46029529999942,251.4661501001101,251.4661501001101,0.013632700080052018,253.6307916000951,[np.float64(-0.18333333333333332)],[np.float64(-0.3212962962962963)],[1],[0],[0],[2.1704156000632793],['target'],1,001,2025-09-30_15h37.13.656,Visual Search,,2025.1.1,60.29203045632926,2025-09-30 15h37.20.021197 +0530,
166,0,166,[np.float64(-0.17962962962962964)],[np.float64(-0.4027777777777778)],[1],[0],[0],[1.4095387000124902],['target'],166,0,166,0,253.6432934999466,,5,253.63910309993662,253.6432934999466,253.6432934999466,0.008147499989718199,255.04873959999532,[np.float64(-0.17962962962962964)],[np.float64(-0.4027777777777778)],[1],[0],[0],[1.4095387000124902],['target'],1,001,2025-09-30_15h37.13.656,Visual Search,,2025.1.1,60.29203045632926,2025-09-30 15h37.20.021197 +0530,
167,0,167,[np.float64(-0.4601851851851852)],[np.float64(0.33425925925925926)],[1],[0],[0],[1.6889402999076992],[None],167,0,167,0,255.06277199997567,,5,255.05714350007474,255.06277199997567,255.06277199997567,0.0082440001424402,256.7461528000422,[np.float64(-0.4601851851851852)],[np.float64(0.33425925925925926)],[1],[0],[0],[1.6889402999076992],[None],1,001,2025-09-30_15h37.13.656,Visual Search,,2025.1.1,60.29203045632926,2025-09-30 15h37.20.021197 +0530,
168,0,168,[np.float64(-0.06296296296296296)],[np.float64(0.3490740740740741)],[1],[0],[0],[1.6490025999955833],['target'],168,0,168,0,256.76861390005797,,10,256.7625249000266,256.76861390005797,256.76861390005797,0.016263999976217747,258.41164589999244,[np.float64(-0.06296296296296296)],[np.float64(0.3490740740740741)],[1],[0],[0],[1.6490025999955833],['target'],1,001,2025-09-30_15h37.13.656,Visual Search,,2025.1.1,60.29203045632926,2025-09-30 15h37.20.021197 +0530,
169,0,169,[np.float64(-0.15925925925925927)],[np.float64(0.3731481481481482)],[1],[0],[0],[1.1196913998574018],['target'],169,0,169,0,258.43360009999014,,10,258.42698489991017,258.43360009999014,258.43360009999014,0.015109599800780416,259.54676389996894,[np.float64(-0.15925925925925927)],[np.float64(0.3731481481481482)],[1],[0],[0],[1.1196913998574018],['target'],1,001,2025-09-30_15h37.13.656,Visual Search,,2025.1.1,60.29203045632926,2025-09-30 15h37.20.021197 +0530,
170,0,170,[np.float64(-0.33055555555555555)],[np.float64(-0.27037037037037037)],[1],[0],[0],[1.4686215999536216],['target'],170,0,170,0,259.56720410007983,,10,259.5612353000324,259.56720410007983,259.56720410007983,0.01431049988605082,261.0299394999165,[np.float64(-0.33055555555555555)],[np.float64(-0.27037037037037037)],[1],[0],[0],[1.4686215999536216],['target'],1,001,2025-09-30_15h37.13.656,Visual Search,,2025.1.1,60.29203045632926,2025-09-30 15h37.20.021197 +0530,
171,0,171,[np.float64(0.4787037037037037)],[np.float64(-0.16018518518518518)],[1],[0],[0],[1.3338885998819023],['target'],171,0,171,0,261.0513339000754,,10,261.0452694001142,261.0513339000754,261.0513339000754,0.015169700141996145,262.37925260001794,[np.float64(0.4787037037037037)],[np.float64(-0.16018518518518518)],[1],[0],[0],[1.3338885998819023],['target'],1,001,2025-09-30_15h37.13.656,Visual Search,,2025.1.1,60.29203045632926,2025-09-30 15h37.20.021197 +0530,
172,0,172,[np.float64(-0.053703703703703705)],[np.float64(-0.1638888888888889)],[1],[0],[0],[1.469660900067538],['target'],172,0,172,0,262.4007602999918,,10,262.39441929990426,262.4007602999918,262.4007602999918,0.014991099946200848,263.8641705000773,[np.float64(-0.053703703703703705)],[np.float64(-0.1638888888888889)],[1],[0],[0],[1.469660900067538],['target'],1,001,2025-09-30_15h37.13.656,Visual Search,,2025.1.1,60.29203045632926,2025-09-30 15h37.20.021197 +0530,
173,0,173,[np.float64(-0.37037037037037035)],[np.float64(-0.03981481481481482)],[1],[0],[0],[1.5042833997868001],['target'],173,0,173,0,263.88423980004154,,10,263.8781008999795,263.88423980004154,263.88423980004154,0.013767300173640251,265.38248819997534,[np.float64(-0.37037037037037035)],[np.float64(-0.03981481481481482)],[1],[0],[0],[1.5042833997868001],['target'],1,001,2025-09-30_15h37.13.656,Visual Search,,2025.1.1,60.29203045632926,2025-09-30 15h37.20.021197 +0530,
174,0,174,[np.float64(0.43425925925925923)],[np.float64(0.000925925925925926)],[1],[0],[0],[1.3400235997978598],['target'],174,0,174,0,265.39597740001045,,5,265.39175190008245,265.39597740001045,265.39597740001045,0.009064999874681234,266.73187120002694,[np.float64(0.43425925925925923)],[np.float64(0.000925925925925926)],[1],[0],[0],[1.3400235997978598],['target'],1,001,2025-09-30_15h37.13.656,Visual Search,,2025.1.1,60.29203045632926,2025-09-30 15h37.20.021197 +0530,
175,0,175,[np.float64(0.4527777777777778)],[np.float64(0.16203703703703703)],[1],[0],[0],[1.0878892000764608],['target'],175,0,175,0,266.74450349994004,,5,266.7402123999782,266.74450349994004,266.74450349994004,0.008177699986845255,267.82823280012235,[np.float64(0.4527777777777778)],[np.float64(0.16203703703703703)],[1],[0],[0],[1.0878892000764608],['target'],1,001,2025-09-30_15h37.13.656,Visual Search,,2025.1.1,60.29203045632926,2025-09-30 15h37.20.021197 +0530,
176,0,176,[np.float64(-0.18703703703703703)],[np.float64(-0.34074074074074073)],[1],[0],[0],[1.2592794999945909],['target'],176,0,176,0,267.8427506000735,,5,267.8383454999421,267.8427506000735,267.8427506000735,0.009864300023764372,269.0977264000103,[np.float64(-0.18703703703703703)],[np.float64(-0.34074074074074073)],[1],[0],[0],[1.2592794999945909],['target'],1,001,2025-09-30_15h37.13.656,Visual Search,,2025.1.1,60.29203045632926,2025-09-30 15h37.20.021197 +0530,
177,0,177,[np.float64(-0.3574074074074074)],[np.float64(-0.2851851851851852)],[1],[0],[0],[1.1683552998583764],['target'],177,0,177,0,269.11863159993663,,10,269.11235329997726,269.11863159993663,269.11863159993663,0.014460599981248379,270.2808066001162,[np.float64(-0.3574074074074074)],[np.float64(-0.2851851851851852)],[1],[0],[0],[1.1683552998583764],['target'],1,001,2025-09-30_15h37.13.656,Visual Search,,2025.1.1,60.29203045632926,2025-09-30 15h37.20.021197 +0530,
178,0,178,[np.float64(-0.375)],[np.float64(0.49537037037037035)],[1],[0],[0],[1.2831836000550538],['target'],178,0,178,0,270.3044153000228,,10,270.298176900018,270.3044153000228,270.3044153000228,0.0171745999250561,271.5814585001208,[np.float64(-0.375)],[np.float64(0.49537037037037035)],[1],[0],[0],[1.2831836000550538],['target'],1,001,2025-09-30_15h37.13.656,Visual Search,,2025.1.1,60.29203045632926,2025-09-30 15h37.20.021197 +0530,
179,0,179,[np.float64(0.2657407407407407)],[np.float64(-0.45925925925925926)],[1],[0],[0],[1.7986866000574082],['target'],179,0,179,0,271.6028221999295,,10,271.59668720001355,271.6028221999295,271.6028221999295,0.015037199947983027,273.3955596999731,[np.float64(0.2657407407407407)],[np.float64(-0.45925925925925926)],[1],[0],[0],[1.7986866000574082],['target'],1,001,2025-09-30_15h37.13.656,Visual Search,,2025.1.1,60.29203045632926,2025-09-30 15h37.20.021197 +0530,
180,0,180,[np.float64(0.29259259259259257)],[np.float64(0.26944444444444443)],[1],[0],[0],[2.53290450014174],['target'],180,0,180,0,273.42079130001366,,10,273.4147131999489,273.42079130001366,273.42079130001366,0.018778500147163868,275.947718200041,[np.float64(0.29259259259259257)],[np.float64(0.26944444444444443)],[1],[0],[0],[2.53290450014174],['target'],1,001,2025-09-30_15h37.13.656,Visual Search,,2025.1.1,60.29203045632926,2025-09-30 15h37.20.021197 +0530,
181,0,181,[np.float64(-0.08888888888888889)],[np.float64(0.06388888888888888)],[1],[0],[0],[1.3877372997812927],['target'],181,0,181,0,275.9693322000094,,10,275.9633502000943,275.9693322000094,275.9693322000094,0.01543550007045269,277.3512001000345,[np.float64(-0.08888888888888889)],[np.float64(0.06388888888888888)],[1],[0],[0],[1.3877372997812927],['target'],1,001,2025-09-30_15h37.13.656,Visual Search,,2025.1.1,60.29203045632926,2025-09-30 15h37.20.021197 +0530,
182,0,182,[np.float64(0.30092592592592593)],[np.float64(-0.2851851851851852)],[1],[0],[0],[1.6986402999609709],[None],182,0,182,0,277.3729151999578,,10,277.3668301999569,277.3729151999578,277.3729151999578,0.015426000114530325,279.0655622999184,[np.float64(0.30092592592592593)],[np.float64(-0.2851851851851852)],[1],[0],[0],[1.6986402999609709],[None],1,001,2025-09-30_15h37.13.656,Visual Search,,2025.1.1,60.29203045632926,2025-09-30 15h37.20.021197 +0530,
183,0,183,[np.float64(0.2537037037037037)],[np.float64(0.3416666666666667)],[1],[0],[0],[1.2850365999620408],['target'],183,0,183,0,279.0868327000644,,10,279.0807847001124,279.0868327000644,279.0868327000644,0.015037700068205595,280.3660730998963,[np.float64(0.2537037037037037)],[np.float64(0.3416666666666667)],[1],[0],[0],[1.2850365999620408],['target'],1,001,2025-09-30_15h37.13.656,Visual Search,,2025.1.1,60.29203045632926,2025-09-30 15h37.20.021197 +0530,
184,0,184,[np.float64(0.3638888888888889)],[np.float64(-0.40185185185185185)],[1],[0],[0],[1.3879609000869095],['target'],184,0,184,0,280.38029389991425,,5,280.3762694001198,280.38029389991425,280.38029389991425,0.009965599980205297,281.76436510006897,[np.float64(0.3638888888888889)],[np.float64(-0.40185185185185185)],[1],[0],[0],[1.3879609000869095],['target'],1,001,2025-09-30_15h37.13.656,Visual Search,,2025.1.1,60.29203045632926,2025-09-30 15h37.20.021197 +0530,
185,0,185,[np.float64(0.30833333333333335)],[np.float64(0.3416666666666667)],[1],[0],[0],[1.4328377000056207],['target'],185,0,185,0,281.78769350005314,,10,281.78114999993704,281.78769350005314,281.78769350005314,0.016594500048086047,283.21407849993557,[np.float64(0.30833333333333335)],[np.float64(0.3416666666666667)],[1],[0],[0],[1.4328377000056207],['target'],1,001,2025-09-30_15h37.13.656,Visual Search,,2025.1.1,60.29203045632926,2025-09-30 15h37.20.021197 +0530,
186,0,186,[np.float64(0.06666666666666667)],[np.float64(0.08888888888888889)],[1],[0],[0],[1.182411499787122],['target'],186,0,186,0,283.23490840010345,,10,283.2283153999597,283.23490840010345,283.23490840010345,0.014060599962249398,284.4108357001096,[np.float64(0.06666666666666667)],[np.float64(0.08888888888888889)],[1],[0],[0],[1.182411499787122],['target'],1,001,2025-09-30_15h37.13.656,Visual Search,,2025.1.1,60.29203045632926,2025-09-30 15h37.20.021197 +0530,
187,0,187,[np.float64(0.02962962962962963)],[np.float64(-0.25555555555555554)],[1],[0],[0],[1.316268099937588],['target'],187,0,187,0,284.43576949997805,,10,284.4292274999898,284.43576949997805,284.43576949997805,0.018153700046241283,285.745547800092,[np.float64(0.02962962962962963)],[np.float64(-0.25555555555555554)],[1],[0],[0],[1.316268099937588],['target'],1,001,2025-09-30_15h37.13.656,Visual Search,,2025.1.1,60.29203045632926,2025-09-30 15h37.20.021197 +0530,
188,0,188,[np.float64(0.02962962962962963)],[np.float64(-0.1935185185185185)],[1],[0],[0],[0.9787432998418808],['target'],188,0,188,0,285.7593024999369,,5,285.7544156999793,285.7593024999369,285.7593024999369,0.00876860017888248,286.733323100023,[np.float64(0.02962962962962963)],[np.float64(-0.1935185185185185)],[1],[0],[0],[0.9787432998418808],['target'],1,001,2025-09-30_15h37.13.656,Visual Search,,2025.1.1,60.29203045632926,2025-09-30 15h37.20.021197 +0530,
189,0,189,[np.float64(0.08888888888888889)],[np.float64(0.44814814814814813)],[1],[0],[0],[1.467010400025174],['target'],189,0,189,0,286.75725640007295,,10,286.7503633000888,286.75725640007295,286.75725640007295,0.01683109998703003,288.21747749997303,[np.float64(0.08888888888888889)],[np.float64(0.44814814814814813)],[1],[0],[0],[1.467010400025174],['target'],1,001,2025-09-30_15h37.13.656,Visual Search,,2025.1.1,60.29203045632926,2025-09-30 15h37.20.021197 +0530,
190,0,190,[np.float64(0.13055555555555556)],[np.float64(-0.22962962962962963)],[1],[0],[0],[1.288710500113666],['target'],190,0,190,0,288.2318706000224,,5,288.226912900107,288.2318706000224,288.2318706000224,0.009206699905917048,289.5157234999351,[np.float64(0.13055555555555556)],[np.float64(-0.22962962962962963)],[1],[0],[0],[1.288710500113666],['target'],1,001,2025-09-30_15h37.13.656,Visual Search,,2025.1.1,60.29203045632926,2025-09-30 15h37.20.021197 +0530,
191,0,191,[np.float64(0.45925925925925926)],[np.float64(-0.046296296296296294)],[1],[0],[0],[2.090186399873346],['target'],191,0,191,0,289.5292285999749,,5,289.5245902999304,289.5292285999749,289.5292285999749,0.008712999988347292,291.61487359995954,[np.float64(0.45925925925925926)],[np.float64(-0.046296296296296294)],[1],[0],[0],[2.090186399873346],['target'],1,001,2025-09-30_15h37.13.656,Visual Search,,2025.1.1,60.29203045632926,2025-09-30 15h37.20.021197 +0530,
192,0,192,[np.float64(-0.22962962962962963)],[np.float64(-0.17962962962962964)],[1],[0],[0],[1.16690309997648],[None],192,0,192,0,291.6386508999858,,10,291.63162479992025,291.6386508999858,291.6386508999858,0.016590700019150972,292.7986208999064,[np.float64(-0.22962962962962963)],[np.float64(-0.17962962962962964)],[1],[0],[0],[1.16690309997648],[None],1,001,2025-09-30_15h37.13.656,Visual Search,,2025.1.1,60.29203045632926,2025-09-30 15h37.20.021197 +0530,
193,0,193,[np.float64(0.41388888888888886)],[np.float64(-0.3509259259259259)],[1],[0],[0],[1.0679828999564052],['target'],193,0,193,0,292.82087410008535,,10,292.81398910004646,292.82087410008535,292.82087410008535,0.015186100034043193,293.88207240006886,[np.float64(0.41388888888888886)],[np.float64(-0.3509259259259259)],[1],[0],[0],[1.0679828999564052],['target'],1,001,2025-09-30_15h37.13.656,Visual Search,,2025.1.1,60.29203045632926,2025-09-30 15h37.20.021197 +0530,
194,0,194,[np.float64(0.49166666666666664)],[np.float64(-0.2638888888888889)],[1],[0],[0],[1.3334600999951363],['target'],194,0,194,0,293.90309650008567,,10,293.89676990010776,293.90309650008567,293.90309650008567,0.014479400124400854,295.23031589994207,[np.float64(0.49166666666666664)],[np.float64(-0.2638888888888889)],[1],[0],[0],[1.3334600999951363],['target'],1,001,2025-09-30_15h37.13.656,Visual Search,,2025.1.1,60.29203045632926,2025-09-30 15h37.20.021197 +0530,
195,0,195,[np.float64(-0.1712962962962963)],[np.float64(0.13425925925925927)],[1],[0],[0],[1.2018264001235366],['target'],195,0,195,0,295.2517413001042,,10,295.24548800010234,295.2517413001042,295.2517413001042,0.015014099888503551,296.44739049999043,[np.float64(-0.1712962962962963)],[np.float64(0.13425925925925927)],[1],[0],[0],[1.2018264001235366],['target'],1,001,2025-09-30_15h37.13.656,Visual Search,,2025.1.1,60.29203045632926,2025-09-30 15h37.20.021197 +0530,
196,0,196,[np.float64(-0.4648148148148148)],[np.float64(-0.2074074074074074)],[1],[0],[0],[1.3938591000624],['target'],196,0,196,0,296.4599647000432,,5,296.455251700012,296.4599647000432,296.4599647000432,0.007708899909630418,297.8492519999854,[np.float64(-0.4648148148148148)],[np.float64(-0.2074074074074074)],[1],[0],[0],[1.3938591000624],['target'],1,001,2025-09-30_15h37.13.656,Visual Search,,2025.1.1,60.29203045632926,2025-09-30 15h37.20.021197 +0530,
197,0,197,[np.float64(-0.43148148148148147)],[np.float64(0.32407407407407407)],[1],[0],[0],[1.2972218000795692],['target'],197,0,197,0,297.8735895000864,,10,297.8676036000252,297.8735895000864,297.8735895000864,0.01807639980688691,299.16492970008403,[np.float64(-0.43148148148148147)],[np.float64(0.32407407407407407)],[1],[0],[0],[1.2972218000795692],['target'],1,001,2025-09-30_15h37.13.656,Visual Search,,2025.1.1,60.29203045632926,2025-09-30 15h37.20.021197 +0530,
198,0,198,[np.float64(-0.47129629629629627)],[np.float64(0.001851851851851852)],[1],[0],[0],[1.5676553000230342],['target'],198,0,198,0,299.18545130011626,,10,299.1790281001013,299.18545130011626,299.18545130011626,0.01392109994776547,300.74676369992085,[np.float64(-0.47129629629629627)],[np.float64(0.001851851851851852)],[1],[0],[0],[1.5676553000230342],['target'],1,001,2025-09-30_15h37.13.656,Visual Search,,2025.1.1,60.29203045632926,2025-09-30 15h37.20.021197 +0530,
199,0,199,[np.float64(0.3351851851851852)],[np.float64(0.06574074074074074)],[1],[0],[0],[1.4944166999775916],['target'],199,0,199,0,300.75958879990503,,5,300.75478610000573,300.75958879990503,300.75958879990503,0.007850199937820435,302.2493112999946,[np.float64(0.3351851851851852)],[np.float64(0.06574074074074074)],[1],[0],[0],[1.4944166999775916],['target'],1,001,2025-09-30_15h37.13.656,Visual Search,,2025.1.1,60.29203045632926,2025-09-30 15h37.20.021197 +0530,
