pos,corr_resp,thisN,thisTrialN,thisRepN,kev_resp.kevs,kev_resp.corr,kev_resp.rt,kev_resp.duration,trials.thisRepN,trials.thisTrialN,trials.thisN,trials.thisIndex,trials_2.thisRepN,trials_2.thisTrialN,trials_2.thisN,trials_2.thisIndex,thisRow.t,notes,trial.started,Fixation.started,line1.started,line2.started,line3.started,line4.started,Fixation.stopped,probe.started,kev_resp.started,trial.stopped,trials.kev_resp.kevs,trials.kev_resp.corr,trials.kev_resp.rt,trials.kev_resp.duration,trials_2.kev_resp.kevs,trials_2.kev_resp.corr,trials_2.kev_resp.rt,trials_2.kev_resp.duration,participant,session,date,expName,expVersion,psvchopvVersion,frameRate,expStart
-50,x,0,0,0,v,0,0.9302656,None,0,0,0,0,,,,,0.0333747,,0.0245247,0.0333747,1.0009796,1.0009796,1.0009796,1.0009796,1.0362138,2.000969,2.000969,2.9493825,v,0,0.9302656,None,,,,,2,1,2025-10-03_13h28.52.734,Motor Sequence,,2025.1.1,60.21655075,2025-10-03 13h28.56.342558 +0530
150,v,1,1,0,z,0,1.1269812,None,0,1,1,1,,,,,2.9673015,,2.9496023,2.9673015,3.9521563,3.9521563,3.9521563,3.9521563,3.9671315,4.9504694,4.9504694,6.0864644,z,0,1.1269812,None,,,,,2,1,2025-10-03_13h28.52.734,Motor Sequence,,2025.1.1,60.21655075,2025-10-03 13h28.56.342558 +0530
50,c,2,2,0,c,1,0.4717805,None,0,2,2,2,,,,,6.1018009,,6.0867062,6.1018009,7.1007024,7.1007024,7.1007024,7.1007024,7.1007024,8.1003268,8.1003268,8.5871405,c,1,0.4717805,None,,,,,2,1,2025-10-03_13h28.52.734,Motor Sequence,,2025.1.1,60.21655075,2025-10-03 13h28.56.342558 +0530
-150,z,3,3,0,x,0,0.3695932,None,0,3,3,3,,,,,8.6010792,,8.5874001,8.6010792,9.6002072,9.6002072,9.6002072,9.6002072,9.6002072,10.6002682,10.6002682,10.9705774,x,0,0.3695932,None,,,,,2,1,2025-10-03_13h28.52.734,Motor Sequence,,2025.1.1,60.21655075,2025-10-03 13h28.56.342558 +0530
-50,x,4,0,1,v,0,0.6037978,None,1,0,4,0,,,,,10.9845744,,10.9708335,10.9845744,11.9846693,11.9846693,11.9846693,11.9846693,11.9846693,12.984078,12.984078,13.6046165,v,0,0.6037978,None,,,,,2,1,2025-10-03_13h28.52.734,Motor Sequence,,2025.1.1,60.21655075,2025-10-03 13h28.56.342558 +0530
150,v,5,1,1,z,0,0.4592661,None,1,1,5,1,,,,,13.6173791,,13.6049573,13.6173791,14.6175174,14.6175174,14.6175174,14.6175174,14.6175174,15.6177929,15.6177929,16.0863982,z,0,0.4592661,None,,,,,2,1,2025-10-03_13h28.52.734,Motor Sequence,,2025.1.1,60.21655075,2025-10-03 13h28.56.342558 +0530
50,c,6,2,1,c,1,0.3182676,None,1,2,6,2,,,,,16.100799,,16.0866278,16.100799,17.100796,17.100796,17.100796,17.100796,17.100796,18.1005469,18.1005469,18.4213358,c,1,0.3182676,None,,,,,2,1,2025-10-03_13h28.52.734,Motor Sequence,,2025.1.1,60.21655075,2025-10-03 13h28.56.342558 +0530
-150,z,7,3,1,x,0,0.63272,None,1,3,7,3,,,,,18.4353166,,18.4217296,18.4353166,19.4336554,19.4336554,19.4336554,19.4336554,19.4336554,20.4340518,20.4340518,21.0717346,x,0,0.63272,None,,,,,2,1,2025-10-03_13h28.52.734,Motor Sequence,,2025.1.1,60.21655075,2025-10-03 13h28.56.342558 +0530
-50,x,8,0,2,v,0,0.3618031,None,2,0,8,0,,,,,21.0857981,,21.072079,21.0857981,22.0835511,22.0835511,22.0835511,22.0835511,22.0835511,23.0865277,23.0865277,23.4542816,v,0,0.3618031,None,,,,,2,1,2025-10-03_13h28.52.734,Motor Sequence,,2025.1.1,60.21655075,2025-10-03 13h28.56.342558 +0530
150,v,9,1,2,c,0,3.0844507,None,2,1,9,1,,,,,23.4675211,,23.4545407,23.4675211,24.4672566,24.4672566,24.4672566,24.4672566,24.4672566,25.4670443,25.4670443,28.5543173,c,0,3.0844507,None,,,,,2,1,2025-10-03_13h28.52.734,Motor Sequence,,2025.1.1,60.21655075,2025-10-03 13h28.56.342558 +0530
50,c,10,2,2,z,0,3.0047411,None,2,2,10,2,,,,,28.5677007,,28.5546833,28.5677007,29.5676005,29.5676005,29.5676005,29.5676005,29.5676005,30.5677244,30.5677244,33.5883609,z,0,3.0047411,None,,,,,2,1,2025-10-03_13h28.52.734,Motor Sequence,,2025.1.1,60.21655075,2025-10-03 13h28.56.342558 +0530
-150,z,11,3,2,x,0,0.5548589,None,2,3,11,3,,,,,33.6006478,,33.5886409,33.6006478,34.6009135,34.6009135,34.6009135,34.6009135,34.6009135,35.6011178,35.6011178,36.1711991,x,0,0.5548589,None,,,,,2,1,2025-10-03_13h28.52.734,Motor Sequence,,2025.1.1,60.21655075,2025-10-03 13h28.56.342558 +0530
-50,x,12,0,3,v,0,0.9075782,None,3,0,12,0,,,,,36.1840346,,36.1714933,36.1840346,37.1832278,37.1832278,37.1832278,37.1832278,37.1832278,38.1842498,38.1842498,39.1020976,v,0,0.9075782,None,,,,,2,1,2025-10-03_13h28.52.734,Motor Sequence,,2025.1.1,60.21655075,2025-10-03 13h28.56.342558 +0530
150,v,13,1,3,z,0,0.7029857,None,3,1,13,1,,,,,39.11691,,39.1022993,39.11691,40.100852,40.100852,40.100852,40.100852,40.1169232,41.1004578,41.1004578,41.8202963,z,0,0.7029857,None,,,,,2,1,2025-10-03_13h28.52.734,Motor Sequence,,2025.1.1,60.21655075,2025-10-03 13h28.56.342558 +0530
50,c,14,2,3,c,1,0.3213634,None,3,2,14,2,,,,,41.8355715,,41.8206326,41.8355715,42.8341036,42.8341036,42.8341036,42.8341036,42.8505289,43.8338265,43.8338265,44.1692775,c,1,0.3213634,None,,,,,2,1,2025-10-03_13h28.52.734,Motor Sequence,,2025.1.1,60.21655075,2025-10-03 13h28.56.342558 +0530
-150,z,15,3,3,x,0,0.3019214,None,3,3,15,3,,,,,44.1839518,,44.1695225,44.1839518,45.1672957,45.1672957,45.1672957,45.1672957,45.1828926,46.1845238,46.1845238,46.5032704,x,0,0.3019214,None,,,,,2,1,2025-10-03_13h28.52.734,Motor Sequence,,2025.1.1,60.21655075,2025-10-03 13h28.56.342558 +0530
-50,x,16,0,4,v,0,0.235594,None,4,0,16,0,,,,,46.5184176,,46.5036235,46.5184176,47.5173446,47.5173446,47.5173446,47.5173446,47.5173446,48.5166803,48.5166803,48.7528464,v,0,0.235594,None,,,,,2,1,2025-10-03_13h28.52.734,Motor Sequence,,2025.1.1,60.21655075,2025-10-03 13h28.56.342558 +0530
150,v,17,1,4,z,0,0.5522482,None,4,1,17,1,,,,,48.7671464,,48.7530683,48.7671464,49.7516912,49.7516912,49.7516912,49.7516912,49.7673897,50.7670687,50.7670687,51.3220187,z,0,0.5522482,None,,,,,2,1,2025-10-03_13h28.52.734,Motor Sequence,,2025.1.1,60.21655075,2025-10-03 13h28.56.342558 +0530
50,c,18,2,4,c,1,0.2862856,None,4,2,18,2,,,,,51.3340364,,51.32235,51.3340364,52.333292,52.333292,52.333292,52.333292,52.333292,53.3338016,53.3338016,53.6357457,c,1,0.2862856,None,,,,,2,1,2025-10-03_13h28.52.734,Motor Sequence,,2025.1.1,60.21655075,2025-10-03 13h28.56.342558 +0530
-150,z,19,3,4,x,0,0.3514398,None,4,3,19,3,,,,,53.6503258,,53.6359653,53.6503258,54.6517605,54.6517605,54.6517605,54.6517605,54.6517605,55.6524374,55.6524374,56.0195723,x,0,0.3514398,None,,,,,2,1,2025-10-03_13h28.52.734,Motor Sequence,,2025.1.1,60.21655075,2025-10-03 13h28.56.342558 +0530
-50,x,20,0,5,v,0,0.6741103,None,5,0,20,0,,,,,56.0336778,,56.0197993,56.0336778,57.0333985,57.0333985,57.0333985,57.0333985,57.0333985,58.0329729,58.0329729,58.718547,v,0,0.6741103,None,,,,,2,1,2025-10-03_13h28.52.734,Motor Sequence,,2025.1.1,60.21655075,2025-10-03 13h28.56.342558 +0530
150,v,21,1,5,z,0,3.8080639,None,5,1,21,1,,,,,58.733459,,58.7188246,58.733459,59.7329423,59.7329423,59.7329423,59.7329423,59.7329423,60.7329713,60.7329713,64.5543487,z,0,3.8080639,None,,,,,2,1,2025-10-03_13h28.52.734,Motor Sequence,,2025.1.1,60.21655075,2025-10-03 13h28.56.342558 +0530
50,c,22,2,5,c,1,2.4836659,None,5,2,22,2,,,,,64.5675618,,64.5546163,64.5675618,65.5677082,65.5677082,65.5677082,65.5677082,65.5677082,66.5664169,66.5664169,69.0526579,c,1,2.4836659,None,,,,,2,1,2025-10-03_13h28.52.734,Motor Sequence,,2025.1.1,60.21655075,2025-10-03 13h28.56.342558 +0530
-150,z,23,3,5,x,0,0.3829408,None,5,3,23,3,,,,,69.066791,,69.052877,69.066791,70.0672974,70.0672974,70.0672974,70.0672974,70.0672974,71.0675802,71.0675802,71.4533295,x,0,0.3829408,None,,,,,2,1,2025-10-03_13h28.52.734,Motor Sequence,,2025.1.1,60.21655075,2025-10-03 13h28.56.342558 +0530
-50,x,24,0,6,v,0,0.2985496,None,6,0,24,0,,,,,71.4669569,,71.4535486,71.4669569,72.4670286,72.4670286,72.4670286,72.4670286,72.4670286,73.4673286,73.4673286,73.7711292,v,0,0.2985496,None,,,,,2,1,2025-10-03_13h28.52.734,Motor Sequence,,2025.1.1,60.21655075,2025-10-03 13h28.56.342558 +0530
150,v,25,1,6,z,0,1.4237507,None,6,1,25,1,,,,,73.7833958,,73.7713976,73.7833958,74.7833912,74.7833912,74.7833912,74.7833912,74.7833912,75.7827773,75.7827773,77.2205748,z,0,1.4237507,None,,,,,2,1,2025-10-03_13h28.52.734,Motor Sequence,,2025.1.1,60.21655075,2025-10-03 13h28.56.342558 +0530
50,c,26,2,6,c,1,0.3854139,None,6,2,26,2,,,,,77.2341165,,77.2208935,77.2341165,78.2342953,78.2342953,78.2342953,78.2342953,78.2342953,79.2330822,79.2330822,79.6206797,c,1,0.3854139,None,,,,,2,1,2025-10-03_13h28.52.734,Motor Sequence,,2025.1.1,60.21655075,2025-10-03 13h28.56.342558 +0530
-150,z,27,3,6,x,0,0.2758061,None,6,3,27,3,,,,,79.6340962,,79.6209748,79.6340962,80.6328182,80.6328182,80.6328182,80.6328182,80.6328182,81.6338855,81.6338855,81.9192351,x,0,0.2758061,None,,,,,2,1,2025-10-03_13h28.52.734,Motor Sequence,,2025.1.1,60.21655075,2025-10-03 13h28.56.342558 +0530
-50,x,28,0,7,v,0,0.4088024,None,7,0,28,0,,,,,81.9343205,,81.9194684,81.9343205,82.9338917,82.9338917,82.9338917,82.9338917,82.9338917,83.9333575,83.9333575,84.3546874,v,0,0.4088024,None,,,,,2,1,2025-10-03_13h28.52.734,Motor Sequence,,2025.1.1,60.21655075,2025-10-03 13h28.56.342558 +0530
150,v,29,1,7,z,0,0.282185,None,7,1,29,1,,,,,84.367491,,84.3549811,84.367491,85.3681404,85.3681404,85.3681404,85.3681404,85.3681404,86.3661255,86.3661255,86.6534549,z,0,0.282185,None,,,,,2,1,2025-10-03_13h28.52.734,Motor Sequence,,2025.1.1,60.21655075,2025-10-03 13h28.56.342558 +0530
50,c,30,2,7,c,1,0.3216113,None,7,2,30,2,,,,,86.6674427,,86.6537415,86.6674427,87.6666911,87.6666911,87.6666911,87.6666911,87.6666911,88.6677115,88.6677115,89.0025715,c,1,0.3216113,None,,,,,2,1,2025-10-03_13h28.52.734,Motor Sequence,,2025.1.1,60.21655075,2025-10-03 13h28.56.342558 +0530
-150,z,31,3,7,x,0,0.3752389,None,7,3,31,3,,,,,89.0168198,,89.002832,89.0168198,90.0166752,90.0166752,90.0166752,90.0166752,90.0166752,91.0163038,91.0163038,91.4025258,x,0,0.3752389,None,,,,,2,1,2025-10-03_13h28.52.734,Motor Sequence,,2025.1.1,60.21655075,2025-10-03 13h28.56.342558 +0530
-50,x,32,0,8,v,0,0.2600681,None,8,0,32,0,,,,,91.4173968,,91.4028008,91.4173968,92.4164535,92.4164535,92.4164535,92.4164535,92.4164535,93.4177344,93.4177344,93.6859538,v,0,0.2600681,None,,,,,2,1,2025-10-03_13h28.52.734,Motor Sequence,,2025.1.1,60.21655075,2025-10-03 13h28.56.342558 +0530
150,v,33,1,8,z,0,1.0476043,None,8,1,33,1,,,,,93.7000935,,93.686183,93.7000935,94.7013878,94.7013878,94.7013878,94.7013878,94.7013878,95.6998544,95.6998544,96.75086,z,0,1.0476043,None,,,,,2,1,2025-10-03_13h28.52.734,Motor Sequence,,2025.1.1,60.21655075,2025-10-03 13h28.56.342558 +0530
50,c,34,2,8,c,1,0.3505098,None,8,2,34,2,,,,,96.7667691,,96.7510452,96.7667691,97.7503346,97.7503346,97.7503346,97.7503346,97.7660917,98.7493611,98.7493611,99.1035332,c,1,0.3505098,None,,,,,2,1,2025-10-03_13h28.52.734,Motor Sequence,,2025.1.1,60.21655075,2025-10-03 13h28.56.342558 +0530
-150,z,35,3,8,x,0,0.646734,None,8,3,35,3,,,,,99.1182451,,99.1038487,99.1182451,100.1167038,100.1167038,100.1167038,100.1167038,100.133412,101.1173349,101.1173349,101.7707088,x,0,0.646734,None,,,,,2,1,2025-10-03_13h28.52.734,Motor Sequence,,2025.1.1,60.21655075,2025-10-03 13h28.56.342558 +0530
-50,x,36,0,9,v,0,0.387978,None,9,0,36,0,,,,,101.783076,,101.7709764,101.783076,102.7835481,102.7835481,102.7835481,102.7835481,102.7835481,103.7840798,103.7840798,104.1853668,v,0,0.387978,None,,,,,2,1,2025-10-03_13h28.52.734,Motor Sequence,,2025.1.1,60.21655075,2025-10-03 13h28.56.342558 +0530
150,v,37,1,9,z,0,2.7499162,None,9,1,37,1,,,,,104.1999939,,104.1856046,104.1999939,105.1990679,105.1990679,105.1990679,105.1990679,105.1990679,106.1993187,106.1993187,108.9528693,z,0,2.7499162,None,,,,,2,1,2025-10-03_13h28.52.734,Motor Sequence,,2025.1.1,60.21655075,2025-10-03 13h28.56.342558 +0530
50,c,38,2,9,c,1,0.2644473,None,9,2,38,2,,,,,108.9677188,,108.9532134,108.9677188,109.9664153,109.9664153,109.9664153,109.9664153,109.9664153,110.9658227,110.9658227,111.2356849,c,1,0.2644473,None,,,,,2,1,2025-10-03_13h28.52.734,Motor Sequence,,2025.1.1,60.21655075,2025-10-03 13h28.56.342558 +0530
-150,z,39,3,9,x,0,0.3020429,None,9,3,39,3,,,,,111.2498598,,111.2359125,111.2498598,112.2507443,112.2507443,112.2507443,112.2507443,112.2507443,113.2493968,113.2493968,113.5687315,x,0,0.3020429,None,,,,,2,1,2025-10-03_13h28.52.734,Motor Sequence,,2025.1.1,60.21655075,2025-10-03 13h28.56.342558 +0530
-50,x,40,0,10,v,0,0.3412861,None,10,0,40,0,,,,,113.5855197,,113.5690558,113.5855197,114.5830952,114.5830952,114.5830952,114.5830952,114.5993751,115.5824154,115.5824154,115.9370196,v,0,0.3412861,None,,,,,2,1,2025-10-03_13h28.52.734,Motor Sequence,,2025.1.1,60.21655075,2025-10-03 13h28.56.342558 +0530
150,v,41,1,10,z,0,1.8421779,None,10,1,41,1,,,,,115.949501,,115.937295,115.949501,116.9493143,116.9493143,116.9493143,116.9493143,116.9493143,117.9494668,117.9494668,119.8014912,z,0,1.8421779,None,,,,,2,1,2025-10-03_13h28.52.734,Motor Sequence,,2025.1.1,60.21655075,2025-10-03 13h28.56.342558 +0530
50,c,42,2,10,c,1,1.0178497,None,10,2,42,2,,,,,119.8163264,,119.8016434,119.8163264,120.8169932,120.8169932,120.8169932,120.8169932,120.8169932,121.7997779,121.7997779,122.8232001,c,1,1.0178497,None,,,,,2,1,2025-10-03_13h28.52.734,Motor Sequence,,2025.1.1,60.21655075,2025-10-03 13h28.56.342558 +0530
-150,z,43,3,10,x,0,1.0108812,None,10,3,43,3,,,,,122.8330112,,122.8234743,122.8330112,123.8325227,123.8325227,123.8325227,123.8325227,123.8325227,124.8333472,124.8333472,125.8523639,x,0,1.0108812,None,,,,,2,1,2025-10-03_13h28.52.734,Motor Sequence,,2025.1.1,60.21655075,2025-10-03 13h28.56.342558 +0530
-50,x,44,0,11,v,0,0.2523601,None,11,0,44,0,,,,,125.8677764,,125.8526946,125.8677764,126.8669321,126.8669321,126.8669321,126.8669321,126.8835974,127.8662477,127.8662477,128.1360266,v,0,0.2523601,None,,,,,2,1,2025-10-03_13h28.52.734,Motor Sequence,,2025.1.1,60.21655075,2025-10-03 13h28.56.342558 +0530
150,v,45,1,11,z,0,0.6280721,None,11,1,45,1,,,,,128.1511213,,128.136364,128.1511213,129.1495646,129.1495646,129.1495646,129.1495646,129.165716,130.1493118,130.1493118,130.7893557,z,0,0.6280721,None,,,,,2,1,2025-10-03_13h28.52.734,Motor Sequence,,2025.1.1,60.21655075,2025-10-03 13h28.56.342558 +0530
50,c,46,2,11,c,1,0.2842357,None,11,2,46,2,,,,,130.7997487,,130.7898892,130.7997487,131.7993785,131.7993785,131.7993785,131.7993785,131.7993785,132.8007811,132.8007811,133.086118,c,1,0.2842357,None,,,,,2,1,2025-10-03_13h28.52.734,Motor Sequence,,2025.1.1,60.21655075,2025-10-03 13h28.56.342558 +0530
-150,z,47,3,11,x,0,0.776629,None,11,3,47,3,,,,,133.0995851,,133.086318,133.0995851,134.1003482,134.1003482,134.1003482,134.1003482,134.1003482,135.0995883,135.0995883,135.8864861,x,0,0.776629,None,,,,,2,1,2025-10-03_13h28.52.734,Motor Sequence,,2025.1.1,60.21655075,2025-10-03 13h28.56.342558 +0530
-50,x,48,0,12,v,0,0.3930313,None,12,0,48,0,,,,,135.8996728,,135.8868799,135.8996728,136.8996809,136.8996809,136.8996809,136.8996809,136.8996809,137.898924,137.898924,138.3003519,v,0,0.3930313,None,,,,,2,1,2025-10-03_13h28.52.734,Motor Sequence,,2025.1.1,60.21655075,2025-10-03 13h28.56.342558 +0530
150,v,49,1,12,z,0,2.0615239,None,12,1,49,1,,,,,138.3164387,,138.3005228,138.3164387,139.3021153,139.3021153,139.3021153,139.3021153,139.3165219,140.3001737,140.3001737,142.3698502,z,0,2.0615239,None,,,,,2,1,2025-10-03_13h28.52.734,Motor Sequence,,2025.1.1,60.21655075,2025-10-03 13h28.56.342558 +0530
50,c,50,2,12,c,1,0.2801578,None,12,2,50,2,,,,,142.3832333,,142.3701645,142.3832333,143.3829324,143.3829324,143.3829324,143.3829324,143.3829324,144.3826389,144.3826389,144.668069,c,1,0.2801578,None,,,,,2,1,2025-10-03_13h28.52.734,Motor Sequence,,2025.1.1,60.21655075,2025-10-03 13h28.56.342558 +0530
-150,z,51,3,12,x,0,0.2811686,None,12,3,51,3,,,,,144.6828733,,144.6682921,144.6828733,145.6667174,145.6667174,145.6667174,145.6667174,145.6837479,146.6825625,146.6825625,146.9693261,x,0,0.2811686,None,,,,,2,1,2025-10-03_13h28.52.734,Motor Sequence,,2025.1.1,60.21655075,2025-10-03 13h28.56.342558 +0530
-50,x,52,0,13,v,0,0.2857669,None,13,0,52,0,,,,,146.9829974,,146.9695811,146.9829974,147.982703,147.982703,147.982703,147.982703,147.982703,148.9828165,148.9828165,149.2844867,v,0,0.2857669,None,,,,,2,1,2025-10-03_13h28.52.734,Motor Sequence,,2025.1.1,60.21655075,2025-10-03 13h28.56.342558 +0530
150,v,53,1,13,z,0,0.327336,None,13,1,53,1,,,,,149.2994826,,149.2847209,149.2994826,150.2997999,150.2997999,150.2997999,150.2997999,150.2997999,151.298731,151.298731,151.6356612,z,0,0.327336,None,,,,,2,1,2025-10-03_13h28.52.734,Motor Sequence,,2025.1.1,60.21655075,2025-10-03 13h28.56.342558 +0530
50,c,54,2,13,c,1,0.2770181,None,13,2,54,2,,,,,151.6499992,,151.6359302,151.6499992,152.6501788,152.6501788,152.6501788,152.6501788,152.6501788,153.6505354,153.6505354,153.9351731,c,1,0.2770181,None,,,,,2,1,2025-10-03_13h28.52.734,Motor Sequence,,2025.1.1,60.21655075,2025-10-03 13h28.56.342558 +0530
-150,z,55,3,13,x,0,0.2637544,None,13,3,55,3,,,,,153.9495197,,153.9354326,153.9495197,154.9489716,154.9489716,154.9489716,154.9489716,154.9489716,155.9505026,155.9505026,156.220584,x,0,0.2637544,None,,,,,2,1,2025-10-03_13h28.52.734,Motor Sequence,,2025.1.1,60.21655075,2025-10-03 13h28.56.342558 +0530
-50,x,56,0,14,v,0,0.2966871,None,14,0,56,0,,,,,156.2326377,,156.220855,156.2326377,157.2331937,157.2331937,157.2331937,157.2331937,157.2331937,158.2333637,158.2333637,158.5348404,v,0,0.2966871,None,,,,,2,1,2025-10-03_13h28.52.734,Motor Sequence,,2025.1.1,60.21655075,2025-10-03 13h28.56.342558 +0530
150,v,57,1,14,z,0,1.1604376,None,14,1,57,1,,,,,158.5493997,,158.5350586,158.5493997,159.5485514,159.5485514,159.5485514,159.5485514,159.5485514,160.5490472,160.5490472,161.7192341,z,0,1.1604376,None,,,,,2,1,2025-10-03_13h28.52.734,Motor Sequence,,2025.1.1,60.21655075,2025-10-03 13h28.56.342558 +0530
50,c,58,2,14,c,1,0.0200496,None,14,2,58,2,,,,,161.7325966,,161.7195202,161.7325966,162.7323527,162.7323527,162.7323527,162.7323527,162.7323527,163.7331549,163.7331549,163.7681719,c,1,0.0200496,None,,,,,2,1,2025-10-03_13h28.52.734,Motor Sequence,,2025.1.1,60.21655075,2025-10-03 13h28.56.342558 +0530
-150,z,59,3,14,x,0,0.3011811,None,14,3,59,3,,,,,163.7830991,,163.7684704,163.7830991,164.782668,164.782668,164.782668,164.782668,164.782668,165.7834749,165.7834749,166.0850753,x,0,0.3011811,None,,,,,2,1,2025-10-03_13h28.52.734,Motor Sequence,,2025.1.1,60.21655075,2025-10-03 13h28.56.342558 +0530
-50,x,60,0,15,v,0,0.2570892,None,15,0,60,0,,,,,166.099133,,166.0852755,166.099133,167.0989205,167.0989205,167.0989205,167.0989205,167.0989205,168.0988748,168.0988748,168.3669531,v,0,0.2570892,None,,,,,2,1,2025-10-03_13h28.52.734,Motor Sequence,,2025.1.1,60.21655075,2025-10-03 13h28.56.342558 +0530
150,v,61,1,15,z,0,1.5275612,None,15,1,61,1,,,,,168.3821885,,168.3671659,168.3821885,169.3657002,169.3657002,169.3657002,169.3657002,169.3821361,170.3827995,170.3827995,171.9176663,z,0,1.5275612,None,,,,,2,1,2025-10-03_13h28.52.734,Motor Sequence,,2025.1.1,60.21655075,2025-10-03 13h28.56.342558 +0530
50,c,62,2,15,c,1,0.3555752,None,15,2,62,2,,,,,171.9327461,,171.9180245,171.9327461,172.9322042,172.9322042,172.9322042,172.9322042,172.9322042,173.9152275,173.9152275,174.2849954,c,1,0.3555752,None,,,,,2,1,2025-10-03_13h28.52.734,Motor Sequence,,2025.1.1,60.21655075,2025-10-03 13h28.56.342558 +0530
-150,z,63,3,15,x,0,0.3313256,None,15,3,63,3,,,,,174.2991864,,174.2852413,174.2991864,175.2996486,175.2996486,175.2996486,175.2996486,175.2996486,176.2990307,176.2990307,176.6362053,x,0,0.3313256,None,,,,,2,1,2025-10-03_13h28.52.734,Motor Sequence,,2025.1.1,60.21655075,2025-10-03 13h28.56.342558 +0530
-50,x,64,0,16,v,0,0.3309924,None,16,0,64,0,,,,,176.6504997,,176.6365711,176.6504997,177.6488296,177.6488296,177.6488296,177.6488296,177.6488296,178.6504299,178.6504299,178.9866111,v,0,0.3309924,None,,,,,2,1,2025-10-03_13h28.52.734,Motor Sequence,,2025.1.1,60.21655075,2025-10-03 13h28.56.342558 +0530
150,v,65,1,16,z,0,2.8790228,None,16,1,65,1,,,,,178.9996728,,178.9869045,178.9996728,179.998531,179.998531,179.998531,179.998531,179.998531,180.9989328,180.9989328,183.8836283,z,0,2.8790228,None,,,,,2,1,2025-10-03_13h28.52.734,Motor Sequence,,2025.1.1,60.21655075,2025-10-03 13h28.56.342558 +0530
50,c,66,2,16,c,1,0.3167807,None,16,2,66,2,,,,,183.8990462,,183.8838444,183.8990462,184.8838178,184.8838178,184.8838178,184.8838178,184.8986004,185.881824,185.881824,186.2045388,c,1,0.3167807,None,,,,,2,1,2025-10-03_13h28.52.734,Motor Sequence,,2025.1.1,60.21655075,2025-10-03 13h28.56.342558 +0530
-150,z,67,3,16,x,0,0.3233865,None,16,3,67,3,,,,,186.2166891,,186.204914,186.2166891,187.2163597,187.2163597,187.2163597,187.2163597,187.2163597,188.2168142,188.2168142,188.5511022,x,0,0.3233865,None,,,,,2,1,2025-10-03_13h28.52.734,Motor Sequence,,2025.1.1,60.21655075,2025-10-03 13h28.56.342558 +0530
-50,x,68,0,17,v,0,0.2789396,None,17,0,68,0,,,,,188.565795,,188.551336,188.565795,189.5663861,189.5663861,189.5663861,189.5663861,189.5663861,190.5660623,190.5660623,190.8510367,v,0,0.2789396,None,,,,,2,1,2025-10-03_13h28.52.734,Motor Sequence,,2025.1.1,60.21655075,2025-10-03 13h28.56.342558 +0530
150,v,69,1,17,z,0,0.41891,None,17,1,69,1,,,,,190.8663566,,190.8512963,190.8663566,191.8652734,191.8652734,191.8652734,191.8652734,191.8652734,192.8651473,192.8651473,193.2872381,z,0,0.41891,None,,,,,2,1,2025-10-03_13h28.52.734,Motor Sequence,,2025.1.1,60.21655075,2025-10-03 13h28.56.342558 +0530
50,c,70,2,17,c,1,0.3479246,None,17,2,70,2,,,,,193.2997425,,193.2875937,193.2997425,194.2995754,194.2995754,194.2995754,194.2995754,194.2995754,195.2991826,195.2991826,195.6525922,c,1,0.3479246,None,,,,,2,1,2025-10-03_13h28.52.734,Motor Sequence,,2025.1.1,60.21655075,2025-10-03 13h28.56.342558 +0530
-150,z,71,3,17,x,0,0.3173567,None,17,3,71,3,,,,,195.6659832,,195.652847,195.6659832,196.6655669,196.6655669,196.6655669,196.6655669,196.6655669,197.6657874,197.6657874,197.9865945,x,0,0.3173567,None,,,,,2,1,2025-10-03_13h28.52.734,Motor Sequence,,2025.1.1,60.21655075,2025-10-03 13h28.56.342558 +0530
-50,x,72,0,18,v,0,0.3697672,None,18,0,72,0,,,,,197.9993641,,197.9869219,197.9993641,198.9996501,198.9996501,198.9996501,198.9996501,198.9996501,199.9985691,199.9985691,200.38601,v,0,0.3697672,None,,,,,2,1,2025-10-03_13h28.52.734,Motor Sequence,,2025.1.1,60.21655075,2025-10-03 13h28.56.342558 +0530
150,v,73,1,18,z,0,3.1261418,None,18,1,73,1,,,,,200.3996558,,200.3862814,200.3996558,201.399496,201.399496,201.399496,201.399496,201.399496,202.3996471,202.3996471,205.534842,z,0,3.1261418,None,,,,,2,1,2025-10-03_13h28.52.734,Motor Sequence,,2025.1.1,60.21655075,2025-10-03 13h28.56.342558 +0530
50,c,74,2,18,c,1,0.3129422,None,18,2,74,2,,,,,205.5501996,,205.5351817,205.5501996,206.5497111,206.5497111,206.5497111,206.5497111,206.5497111,207.5495923,207.5495923,207.8697236,c,1,0.3129422,None,,,,,2,1,2025-10-03_13h28.52.734,Motor Sequence,,2025.1.1,60.21655075,2025-10-03 13h28.56.342558 +0530
-150,z,75,3,18,x,0,4.6533763,None,18,3,75,3,,,,,207.88306,,207.8701464,207.88306,208.8829175,208.8829175,208.8829175,208.8829175,208.8829175,209.8823761,209.8823761,214.5510629,x,0,4.6533763,None,,,,,2,1,2025-10-03_13h28.52.734,Motor Sequence,,2025.1.1,60.21655075,2025-10-03 13h28.56.342558 +0530
-50,x,76,0,19,v,0,0.9183919,None,19,0,76,0,,,,,214.565104,,214.5513115,214.565104,215.5647521,215.5647521,215.5647521,215.5647521,215.5647521,216.5649925,216.5649925,217.4869166,v,0,0.9183919,None,,,,,2,1,2025-10-03_13h28.52.734,Motor Sequence,,2025.1.1,60.21655075,2025-10-03 13h28.56.342558 +0530
150,v,77,1,19,z,0,9.8470555,None,19,1,77,1,,,,,217.4991418,,217.4873202,217.4991418,218.4979396,218.4979396,218.4979396,218.4979396,218.4979396,219.4985746,219.4985746,229.3514077,z,0,9.8470555,None,,,,,2,1,2025-10-03_13h28.52.734,Motor Sequence,,2025.1.1,60.21655075,2025-10-03 13h28.56.342558 +0530
50,c,78,2,19,c,1,0.8365129,None,19,2,78,2,,,,,229.3654735,,229.3517361,229.3654735,230.3653357,230.3653357,230.3653357,230.3653357,230.3653357,231.3646763,231.3646763,232.217098,c,1,0.8365129,None,,,,,2,1,2025-10-03_13h28.52.734,Motor Sequence,,2025.1.1,60.21655075,2025-10-03 13h28.56.342558 +0530
-150,z,79,3,19,x,0,0.6231214,None,19,3,79,3,,,,,232.2318432,,232.2173137,232.2318432,233.2318041,233.2318041,233.2318041,233.2318041,233.2318041,234.2326131,234.2326131,234.868611,x,0,0.6231214,None,,,,,2,1,2025-10-03_13h28.52.734,Motor Sequence,,2025.1.1,60.21655075,2025-10-03 13h28.56.342558 +0530
-50,x,80,0,20,v,0,3.5615451,None,20,0,80,0,,,,,234.8824888,,234.8688742,234.8824888,235.8834694,235.8834694,235.8834694,235.8834694,235.8834694,236.8814479,236.8814479,240.4504262,v,0,3.5615451,None,,,,,2,1,2025-10-03_13h28.52.734,Motor Sequence,,2025.1.1,60.21655075,2025-10-03 13h28.56.342558 +0530
150,v,81,1,20,z,0,2.234791,None,20,1,81,1,,,,,240.4649966,,240.4506509,240.4649966,241.4648761,241.4648761,241.4648761,241.4648761,241.4648761,242.4661244,242.4661244,244.7168985,z,0,2.234791,None,,,,,2,1,2025-10-03_13h28.52.734,Motor Sequence,,2025.1.1,60.21655075,2025-10-03 13h28.56.342558 +0530
50,c,82,2,20,c,1,2.124721,None,20,2,82,2,,,,,244.731702,,244.7171145,244.731702,245.7311672,245.7311672,245.7311672,245.7311672,245.7311672,246.731729,246.731729,248.8684742,c,1,2.124721,None,,,,,2,1,2025-10-03_13h28.52.734,Motor Sequence,,2025.1.1,60.21655075,2025-10-03 13h28.56.342558 +0530
-150,z,83,3,20,x,0,0.9301962,None,20,3,83,3,,,,,248.881753,,248.8687746,248.881753,249.8822538,249.8822538,249.8822538,249.8822538,249.8822538,250.8819765,250.8819765,251.8177213,x,0,0.9301962,None,,,,,2,1,2025-10-03_13h28.52.734,Motor Sequence,,2025.1.1,60.21655075,2025-10-03 13h28.56.342558 +0530
-50,x,84,0,21,v,0,0.6395024,None,21,0,84,0,,,,,251.8320623,,251.817959,251.8320623,252.8330447,252.8330447,252.8330447,252.8330447,252.8330447,253.8313789,253.8313789,254.4844842,v,0,0.6395024,None,,,,,2,1,2025-10-03_13h28.52.734,Motor Sequence,,2025.1.1,60.21655075,2025-10-03 13h28.56.342558 +0530
150,v,85,1,21,z,0,0.4106523,None,21,1,85,1,,,,,254.4990901,,254.4848051,254.4990901,255.4987841,255.4987841,255.4987841,255.4987841,255.4987841,256.4984126,256.4984126,256.9184352,z,0,0.4106523,None,,,,,2,1,2025-10-03_13h28.52.734,Motor Sequence,,2025.1.1,60.21655075,2025-10-03 13h28.56.342558 +0530
50,c,86,2,21,c,1,1.6898208,None,21,2,86,2,,,,,256.9325976,,256.9187766,256.9325976,257.9319564,257.9319564,257.9319564,257.9319564,257.9319564,258.9326998,258.9326998,260.63372,c,1,1.6898208,None,,,,,2,1,2025-10-03_13h28.52.734,Motor Sequence,,2025.1.1,60.21655075,2025-10-03 13h28.56.342558 +0530
-150,z,87,3,21,x,0,0.3222657,None,21,3,87,3,,,,,260.6487972,,260.6340046,260.6487972,261.6321447,261.6321447,261.6321447,261.6321447,261.6490165,262.6477198,262.6477198,262.9846181,x,0,0.3222657,None,,,,,2,1,2025-10-03_13h28.52.734,Motor Sequence,,2025.1.1,60.21655075,2025-10-03 13h28.56.342558 +0530
-50,x,88,0,22,v,0,0.4412348,None,22,0,88,0,,,,,262.9997142,,262.9849533,262.9997142,263.9989323,263.9989323,263.9989323,263.9989323,263.9989323,264.9981842,264.9981842,265.4508597,v,0,0.4412348,None,,,,,2,1,2025-10-03_13h28.52.734,Motor Sequence,,2025.1.1,60.21655075,2025-10-03 13h28.56.342558 +0530
150,v,89,1,22,z,0,0.7124841,None,22,1,89,1,,,,,265.4653666,,265.4511143,265.4653666,266.4653281,266.4653281,266.4653281,266.4653281,266.4653281,267.4655662,267.4655662,268.1847636,z,0,0.7124841,None,,,,,2,1,2025-10-03_13h28.52.734,Motor Sequence,,2025.1.1,60.21655075,2025-10-03 13h28.56.342558 +0530
50,c,90,2,22,c,1,0.432679,None,22,2,90,2,,,,,268.1976934,,268.1850391,268.1976934,269.1982364,269.1982364,269.1982364,269.1982364,269.1982364,270.1984068,270.1984068,270.6368039,c,1,0.432679,None,,,,,2,1,2025-10-03_13h28.52.734,Motor Sequence,,2025.1.1,60.21655075,2025-10-03 13h28.56.342558 +0530
-150,z,91,3,22,x,0,0.5352279,None,22,3,91,3,,,,,270.647907,,270.6371498,270.647907,271.6476651,271.6476651,271.6476651,271.6476651,271.6476651,272.648766,272.648766,273.1854772,x,0,0.5352279,None,,,,,2,1,2025-10-03_13h28.52.734,Motor Sequence,,2025.1.1,60.21655075,2025-10-03 13h28.56.342558 +0530
-50,x,92,0,23,v,0,0.3442038,None,23,0,92,0,,,,,273.1977229,,273.1857745,273.1977229,274.1981303,274.1981303,274.1981303,274.1981303,274.1981303,275.1974507,275.1974507,275.5506547,v,0,0.3442038,None,,,,,2,1,2025-10-03_13h28.52.734,Motor Sequence,,2025.1.1,60.21655075,2025-10-03 13h28.56.342558 +0530
150,v,93,1,23,z,0,1.2319615,None,23,1,93,1,,,,,275.565058,,275.5509793,275.565058,276.5649223,276.5649223,276.5649223,276.5649223,276.5649223,277.5646369,277.5646369,278.8009119,z,0,1.2319615,None,,,,,2,1,2025-10-03_13h28.52.734,Motor Sequence,,2025.1.1,60.21655075,2025-10-03 13h28.56.342558 +0530
50,c,94,2,23,c,1,1.1571964,None,23,2,94,2,,,,,278.8143757,,278.8011311,278.8143757,279.8142633,279.8142633,279.8142633,279.8142633,279.8142633,280.814681,280.814681,281.9829369,c,1,1.1571964,None,,,,,2,1,2025-10-03_13h28.52.734,Motor Sequence,,2025.1.1,60.21655075,2025-10-03 13h28.56.342558 +0530
-150,z,95,3,23,x,0,0.3382533,None,23,3,95,3,,,,,281.997936,,281.9831512,281.997936,282.99786,282.99786,282.99786,282.99786,282.99786,283.9980442,283.9980442,284.3501474,x,0,0.3382533,None,,,,,2,1,2025-10-03_13h28.52.734,Motor Sequence,,2025.1.1,60.21655075,2025-10-03 13h28.56.342558 +0530
-50,x,96,0,24,v,0,0.4541433,None,24,0,96,0,,,,,284.3649227,,284.3503576,284.3649227,285.3638396,285.3638396,285.3638396,285.3638396,285.3638396,286.3640182,286.3640182,286.8317649,v,0,0.4541433,None,,,,,2,1,2025-10-03_13h28.52.734,Motor Sequence,,2025.1.1,60.21655075,2025-10-03 13h28.56.342558 +0530
150,v,97,1,24,z,0,1.9882982,None,24,1,97,1,,,,,286.8474784,,286.8319306,286.8474784,287.8308708,287.8308708,287.8308708,287.8308708,287.847449,288.8307768,288.8307768,290.8345647,z,0,1.9882982,None,,,,,2,1,2025-10-03_13h28.52.734,Motor Sequence,,2025.1.1,60.21655075,2025-10-03 13h28.56.342558 +0530
50,c,98,2,24,c,1,0.3117355,None,24,2,98,2,,,,,290.8494319,,290.834975,290.8494319,291.8475588,291.8475588,291.8475588,291.8475588,291.8645966,292.8482804,292.8482804,293.166241,c,1,0.3117355,None,,,,,2,1,2025-10-03_13h28.52.734,Motor Sequence,,2025.1.1,60.21655075,2025-10-03 13h28.56.342558 +0530
-150,z,99,3,24,x,0,0.370711,None,24,3,99,3,,,,,293.1810624,,293.1664591,293.1810624,294.1646062,294.1646062,294.1646062,294.1646062,294.1810597,295.1811111,295.1811111,295.5661642,x,0,0.370711,None,,,,,2,1,2025-10-03_13h28.52.734,Motor Sequence,,2025.1.1,60.21655075,2025-10-03 13h28.56.342558 +0530
-50,x,100,0,25,v,0,0.5045187,None,25,0,100,0,,,,,295.581151,,295.5663744,295.581151,296.5810173,296.5810173,296.5810173,296.5810173,296.5810173,297.5810486,297.5810486,298.1001972,v,0,0.5045187,None,,,,,2,1,2025-10-03_13h28.52.734,Motor Sequence,,2025.1.1,60.21655075,2025-10-03 13h28.56.342558 +0530
150,v,101,1,25,z,0,0.6565744,None,25,1,101,1,,,,,298.114428,,298.1004108,298.114428,299.113916,299.113916,299.113916,299.113916,299.113916,300.1137441,300.1137441,300.7832721,z,0,0.6565744,None,,,,,2,1,2025-10-03_13h28.52.734,Motor Sequence,,2025.1.1,60.21655075,2025-10-03 13h28.56.342558 +0530
50,c,102,2,25,c,1,0.3193872,None,25,2,102,2,,,,,300.7977993,,300.7835069,300.7977993,301.7973221,301.7973221,301.7973221,301.7973221,301.7973221,302.7986232,302.7986232,303.1195027,c,1,0.3193872,None,,,,,2,1,2025-10-03_13h28.52.734,Motor Sequence,,2025.1.1,60.21655075,2025-10-03 13h28.56.342558 +0530
-150,z,103,3,25,x,0,0.403383,None,25,3,103,3,,,,,303.1320659,,303.1198693,303.1320659,304.130736,304.130736,304.130736,304.130736,304.130736,305.1319816,305.1319816,305.5499674,x,0,0.403383,None,,,,,2,1,2025-10-03_13h28.52.734,Motor Sequence,,2025.1.1,60.21655075,2025-10-03 13h28.56.342558 +0530
-50,x,104,0,26,v,0,0.4995075,None,26,0,104,0,,,,,305.5646922,,305.5501904,305.5646922,306.5653926,306.5653926,306.5653926,306.5653926,306.5653926,307.5653066,307.5653066,308.0686182,v,0,0.4995075,None,,,,,2,1,2025-10-03_13h28.52.734,Motor Sequence,,2025.1.1,60.21655075,2025-10-03 13h28.56.342558 +0530
150,v,105,1,26,z,0,1.4665065,None,26,1,105,1,,,,,308.0806044,,308.0689065,308.0806044,309.0818388,309.0818388,309.0818388,309.0818388,309.0818388,310.0812478,310.0812478,311.5542656,z,0,1.4665065,None,,,,,2,1,2025-10-03_13h28.52.734,Motor Sequence,,2025.1.1,60.21655075,2025-10-03 13h28.56.342558 +0530
50,c,106,2,26,c,1,0.3669991,None,26,2,106,2,,,,,311.5643805,,311.5545778,311.5643805,312.5658753,312.5658753,312.5658753,312.5658753,312.5658753,313.5654162,313.5654162,313.935785,c,1,0.3669991,None,,,,,2,1,2025-10-03_13h28.52.734,Motor Sequence,,2025.1.1,60.21655075,2025-10-03 13h28.56.342558 +0530
-150,z,107,3,26,x,0,0.4377969,None,26,3,107,3,,,,,313.9476637,,313.9360528,313.9476637,314.9477477,314.9477477,314.9477477,314.9477477,314.9477477,315.9473401,315.9473401,316.4013137,x,0,0.4377969,None,,,,,2,1,2025-10-03_13h28.52.734,Motor Sequence,,2025.1.1,60.21655075,2025-10-03 13h28.56.342558 +0530
-50,x,108,0,27,v,0,4.8974264,None,27,0,108,0,,,,,316.4140427,,316.4015758,316.4140427,317.4143109,317.4143109,317.4143109,317.4143109,317.4143109,318.4141736,318.4141736,323.3173287,v,0,4.8974264,None,,,,,2,1,2025-10-03_13h28.52.734,Motor Sequence,,2025.1.1,60.21655075,2025-10-03 13h28.56.342558 +0530
150,v,109,1,27,z,0,0.4978397,None,27,1,109,1,,,,,323.3314314,,323.3175635,323.3314314,324.3308034,324.3308034,324.3308034,324.3308034,324.3308034,325.330695,325.330695,325.8348299,z,0,0.4978397,None,,,,,2,1,2025-10-03_13h28.52.734,Motor Sequence,,2025.1.1,60.21655075,2025-10-03 13h28.56.342558 +0530
50,c,110,2,27,c,1,0.6239355,None,27,2,110,2,,,,,325.849016,,325.8352231,325.849016,326.8475445,326.8475445,326.8475445,326.8475445,326.8475445,327.8480407,327.8480407,328.4860723,c,1,0.6239355,None,,,,,2,1,2025-10-03_13h28.52.734,Motor Sequence,,2025.1.1,60.21655075,2025-10-03 13h28.56.342558 +0530
-150,z,111,3,27,x,0,1.7607854,None,27,3,111,3,,,,,328.4980503,,328.4863952,328.4980503,329.4976059,329.4976059,329.4976059,329.4976059,329.4976059,330.4980128,330.4980128,332.2673717,x,0,1.7607854,None,,,,,2,1,2025-10-03_13h28.52.734,Motor Sequence,,2025.1.1,60.21655075,2025-10-03 13h28.56.342558 +0530
-50,x,112,0,28,v,0,0.4138295,None,28,0,112,0,,,,,332.2817522,,332.2677974,332.2817522,333.2812155,333.2812155,333.2812155,333.2812155,333.2812155,334.2811179,334.2811179,334.7000977,v,0,0.4138295,None,,,,,2,1,2025-10-03_13h28.52.734,Motor Sequence,,2025.1.1,60.21655075,2025-10-03 13h28.56.342558 +0530
150,v,113,1,28,z,0,2.8807973,None,28,1,113,1,,,,,334.714064,,334.7003291,334.714064,335.7136881,335.7136881,335.7136881,335.7136881,335.7136881,336.7149671,336.7149671,339.6020442,z,0,2.8807973,None,,,,,2,1,2025-10-03_13h28.52.734,Motor Sequence,,2025.1.1,60.21655075,2025-10-03 13h28.56.342558 +0530
50,c,114,2,28,c,1,0.4445681,None,28,2,114,2,,,,,339.6142293,,339.6023199,339.6142293,340.6154854,340.6154854,340.6154854,340.6154854,340.6154854,341.613724,341.613724,342.0664316,c,1,0.4445681,None,,,,,2,1,2025-10-03_13h28.52.734,Motor Sequence,,2025.1.1,60.21655075,2025-10-03 13h28.56.342558 +0530
-150,z,115,3,28,x,0,2.6254617,None,28,3,115,3,,,,,342.0806252,,342.0666684,342.0806252,343.0636969,343.0636969,343.0636969,343.0636969,343.0801011,344.0809928,344.0809928,346.7164525,x,0,2.6254617,None,,,,,2,1,2025-10-03_13h28.52.734,Motor Sequence,,2025.1.1,60.21655075,2025-10-03 13h28.56.342558 +0530
-50,x,116,0,29,v,0,0.5649772,None,29,0,116,0,,,,,346.7308109,,346.7166839,346.7308109,347.7305876,347.7305876,347.7305876,347.7305876,347.7305876,348.7303492,348.7303492,349.3004355,v,0,0.5649772,None,,,,,2,1,2025-10-03_13h28.52.734,Motor Sequence,,2025.1.1,60.21655075,2025-10-03 13h28.56.342558 +0530
150,v,117,1,29,z,0,0.332704,None,29,1,117,1,,,,,349.3142075,,349.3006732,349.3142075,350.3132874,350.3132874,350.3132874,350.3132874,350.3132874,351.3147793,351.3147793,351.6509241,z,0,0.332704,None,,,,,2,1,2025-10-03_13h28.52.734,Motor Sequence,,2025.1.1,60.21655075,2025-10-03 13h28.56.342558 +0530
50,c,118,2,29,c,1,1.4573078,None,29,2,118,2,,,,,351.6639003,,351.651159,351.6639003,352.6634796,352.6634796,352.6634796,352.6634796,352.6634796,353.663396,353.663396,355.1335309,c,1,1.4573078,None,,,,,2,1,2025-10-03_13h28.52.734,Motor Sequence,,2025.1.1,60.21655075,2025-10-03 13h28.56.342558 +0530
-150,z,119,3,29,x,0,0.2763538,None,29,3,119,3,,,,,355.1477178,,355.1338479,355.1477178,356.1472149,356.1472149,356.1472149,356.1472149,356.1472149,357.1469283,357.1469283,357.4323388,x,0,0.2763538,None,,,,,2,1,2025-10-03_13h28.52.734,Motor Sequence,,2025.1.1,60.21655075,2025-10-03 13h28.56.342558 +0530
-50,x,120,0,30,v,0,0.2914012,None,30,0,120,0,,,,,357.4473123,,357.4325901,357.4473123,358.4469334,358.4469334,358.4469334,358.4469334,358.4469334,359.4471131,359.4471131,359.7495674,v,0,0.2914012,None,,,,,2,1,2025-10-03_13h28.52.734,Motor Sequence,,2025.1.1,60.21655075,2025-10-03 13h28.56.342558 +0530
150,v,121,1,30,z,0,0.2760994,None,30,1,121,1,,,,,359.7641923,,359.7498759,359.7641923,360.7634773,360.7634773,360.7634773,360.7634773,360.7634773,361.76366,361.76366,362.0493307,z,0,0.2760994,None,,,,,2,1,2025-10-03_13h28.52.734,Motor Sequence,,2025.1.1,60.21655075,2025-10-03 13h28.56.342558 +0530
50,c,122,2,30,c,1,0.4088408,None,30,2,122,2,,,,,362.0639457,,362.0495511,362.0639457,363.0640634,363.0640634,363.0640634,363.0640634,363.0640634,364.0634904,364.0634904,364.4833713,c,1,0.4088408,None,,,,,2,1,2025-10-03_13h28.52.734,Motor Sequence,,2025.1.1,60.21655075,2025-10-03 13h28.56.342558 +0530
-150,z,123,3,30,x,0,0.2761599,None,30,3,123,3,,,,,364.4980457,,364.4836643,364.4980457,365.4968185,365.4968185,365.4968185,365.4968185,365.4968185,366.4967133,366.4967133,366.7840377,x,0,0.2761599,None,,,,,2,1,2025-10-03_13h28.52.734,Motor Sequence,,2025.1.1,60.21655075,2025-10-03 13h28.56.342558 +0530
-50,x,124,0,31,v,0,0.4329077,None,31,0,124,0,,,,,366.7975544,,366.7843539,366.7975544,367.7975951,367.7975951,367.7975951,367.7975951,367.7975951,368.7978072,368.7978072,369.2336039,v,0,0.4329077,None,,,,,2,1,2025-10-03_13h28.52.734,Motor Sequence,,2025.1.1,60.21655075,2025-10-03 13h28.56.342558 +0530
150,v,125,1,31,z,0,3.5720524,None,31,1,125,1,,,,,369.2473883,,369.2338824,369.2473883,370.248317,370.248317,370.248317,370.248317,370.248317,371.2475901,371.2475901,374.8336717,z,0,3.5720524,None,,,,,2,1,2025-10-03_13h28.52.734,Motor Sequence,,2025.1.1,60.21655075,2025-10-03 13h28.56.342558 +0530
50,c,126,2,31,c,1,0.5352392,None,31,2,126,2,,,,,374.8478788,,374.8339372,374.8478788,375.8469913,375.8469913,375.8469913,375.8469913,375.8469913,376.8481653,376.8481653,377.3837729,c,1,0.5352392,None,,,,,2,1,2025-10-03_13h28.52.734,Motor Sequence,,2025.1.1,60.21655075,2025-10-03 13h28.56.342558 +0530
-150,z,127,3,31,x,0,0.2621954,None,31,3,127,3,,,,,377.398247,,377.3840527,377.398247,378.3971593,378.3971593,378.3971593,378.3971593,378.3971593,379.3972244,379.3972244,379.6656295,x,0,0.2621954,None,,,,,2,1,2025-10-03_13h28.52.734,Motor Sequence,,2025.1.1,60.21655075,2025-10-03 13h28.56.342558 +0530
-50,x,128,0,32,v,0,0.2640567,None,32,0,128,0,,,,,379.6802249,,379.665879,379.6802249,380.6800913,380.6800913,380.6800913,380.6800913,380.6800913,381.6809729,381.6809729,381.9514115,v,0,0.2640567,None,,,,,2,1,2025-10-03_13h28.52.734,Motor Sequence,,2025.1.1,60.21655075,2025-10-03 13h28.56.342558 +0530
150,v,129,1,32,z,0,0.4146027,None,32,1,129,1,,,,,381.9641372,,381.9517075,381.9641372,382.9638547,382.9638547,382.9638547,382.9638547,382.9638547,383.9637735,383.9637735,384.3836573,z,0,0.4146027,None,,,,,2,1,2025-10-03_13h28.52.734,Motor Sequence,,2025.1.1,60.21655075,2025-10-03 13h28.56.342558 +0530
50,c,130,2,32,c,1,1.1054644,None,32,2,130,2,,,,,384.3973037,,384.3839005,384.3973037,385.3967536,385.3967536,385.3967536,385.3967536,385.3967536,386.3970753,386.3970753,387.517646,c,1,1.1054644,None,,,,,2,1,2025-10-03_13h28.52.734,Motor Sequence,,2025.1.1,60.21655075,2025-10-03 13h28.56.342558 +0530
-150,z,131,3,32,x,0,0.582268,None,32,3,131,3,,,,,387.530427,,387.5179296,387.530427,388.5305116,388.5305116,388.5305116,388.5305116,388.5305116,389.5308767,389.5308767,390.1166407,x,0,0.582268,None,,,,,2,1,2025-10-03_13h28.52.734,Motor Sequence,,2025.1.1,60.21655075,2025-10-03 13h28.56.342558 +0530
-50,x,132,0,33,v,0,0.5963044,None,33,0,132,0,,,,,390.1304049,,390.1168852,390.1304049,391.1304426,391.1304426,391.1304426,391.1304426,391.1304426,392.1297129,392.1297129,392.7325947,v,0,0.5963044,None,,,,,2,1,2025-10-03_13h28.52.734,Motor Sequence,,2025.1.1,60.21655075,2025-10-03 13h28.56.342558 +0530
150,v,133,1,33,z,0,0.7342529,None,33,1,133,1,,,,,392.7476384,,392.7329303,392.7476384,393.7473797,393.7473797,393.7473797,393.7473797,393.7473797,394.747115,394.747115,395.48546,z,0,0.7342529,None,,,,,2,1,2025-10-03_13h28.52.734,Motor Sequence,,2025.1.1,60.21655075,2025-10-03 13h28.56.342558 +0530
50,c,134,2,33,c,1,0.2711124,None,33,2,134,2,,,,,395.4969524,,395.4857217,395.4969524,396.4968063,396.4968063,396.4968063,396.4968063,396.4968063,397.4963365,397.4963365,397.781165,c,1,0.2711124,None,,,,,2,1,2025-10-03_13h28.52.734,Motor Sequence,,2025.1.1,60.21655075,2025-10-03 13h28.56.342558 +0530
-150,z,135,3,33,x,0,0.594263,None,33,3,135,3,,,,,397.7965433,,397.7813326,397.7965433,398.7806243,398.7806243,398.7806243,398.7806243,398.7967876,399.7959742,399.7959742,400.397781,x,0,0.594263,None,,,,,2,1,2025-10-03_13h28.52.734,Motor Sequence,,2025.1.1,60.21655075,2025-10-03 13h28.56.342558 +0530
-50,x,136,0,34,v,0,0.4857897,None,34,0,136,0,,,,,400.4139016,,400.3979661,400.4139016,401.3972766,401.3972766,401.3972766,401.3972766,401.4141699,402.396307,402.396307,402.8831336,v,0,0.4857897,None,,,,,2,1,2025-10-03_13h28.52.734,Motor Sequence,,2025.1.1,60.21655075,2025-10-03 13h28.56.342558 +0530
150,v,137,1,34,z,0,2.1227941,None,34,1,137,1,,,,,402.897093,,402.8833739,402.897093,403.896542,403.896542,403.896542,403.896542,403.896542,404.896082,404.896082,407.0325972,z,0,2.1227941,None,,,,,2,1,2025-10-03_13h28.52.734,Motor Sequence,,2025.1.1,60.21655075,2025-10-03 13h28.56.342558 +0530
50,c,138,2,34,c,1,0.6876336,None,34,2,138,2,,,,,407.0469527,,407.0328121,407.0469527,408.0472279,408.0472279,408.0472279,408.0472279,408.0472279,409.0465382,409.0465382,409.7503291,c,1,0.6876336,None,,,,,2,1,2025-10-03_13h28.52.734,Motor Sequence,,2025.1.1,60.21655075,2025-10-03 13h28.56.342558 +0530
-150,z,139,3,34,x,0,0.660284,None,34,3,139,3,,,,,409.7633872,,409.750593,409.7633872,410.7632639,410.7632639,410.7632639,410.7632639,410.7632639,411.7640876,411.7640876,412.4323506,x,0,0.660284,None,,,,,2,1,2025-10-03_13h28.52.734,Motor Sequence,,2025.1.1,60.21655075,2025-10-03 13h28.56.342558 +0530
-50,x,140,0,35,v,0,1.0068052,None,35,0,140,0,,,,,412.4465115,,412.4325778,412.4465115,413.4466327,413.4466327,413.4466327,413.4466327,413.4466327,414.4304325,414.4304325,415.4486652,v,0,1.0068052,None,,,,,2,1,2025-10-03_13h28.52.734,Motor Sequence,,2025.1.1,60.21655075,2025-10-03 13h28.56.342558 +0530
150,v,141,1,35,z,0,7.103914,None,35,1,141,1,,,,,415.463069,,415.448885,415.463069,416.4626434,416.4626434,416.4626434,416.4626434,416.4626434,417.4635535,417.4635535,424.5694791,z,0,7.103914,None,,,,,2,1,2025-10-03_13h28.52.734,Motor Sequence,,2025.1.1,60.21655075,2025-10-03 13h28.56.342558 +0530
50,c,142,2,35,c,1,0.3183969,None,35,2,142,2,,,,,424.5801215,,424.569826,424.5801215,425.5798941,425.5798941,425.5798941,425.5798941,425.5798941,426.5802704,426.5802704,426.9014282,c,1,0.3183969,None,,,,,2,1,2025-10-03_13h28.52.734,Motor Sequence,,2025.1.1,60.21655075,2025-10-03 13h28.56.342558 +0530
-150,z,143,3,35,x,0,0.3123558,None,35,3,143,3,,,,,426.9131433,,426.9016955,426.9131433,427.9142919,427.9142919,427.9142919,427.9142919,427.9142919,428.9132731,428.9132731,429.2320923,x,0,0.3123558,None,,,,,2,1,2025-10-03_13h28.52.734,Motor Sequence,,2025.1.1,60.21655075,2025-10-03 13h28.56.342558 +0530
-50,x,144,0,36,v,0,0.5422378,None,36,0,144,0,,,,,429.2465045,,429.2323535,429.2465045,430.2460593,430.2460593,430.2460593,430.2460593,430.2460593,431.2470023,431.2470023,431.7994419,v,0,0.5422378,None,,,,,2,1,2025-10-03_13h28.52.734,Motor Sequence,,2025.1.1,60.21655075,2025-10-03 13h28.56.342558 +0530
150,v,145,1,36,z,0,1.0755843,None,36,1,145,1,,,,,431.8127924,,431.7996889,431.8127924,432.812788,432.812788,432.812788,432.812788,432.812788,433.8138869,433.8138869,434.9004073,z,0,1.0755843,None,,,,,2,1,2025-10-03_13h28.52.734,Motor Sequence,,2025.1.1,60.21655075,2025-10-03 13h28.56.342558 +0530
50,c,146,2,36,c,1,0.3578586,None,36,2,146,2,,,,,434.912822,,434.9007794,434.912822,435.9133863,435.9133863,435.9133863,435.9133863,435.9133863,436.9137536,436.9137536,437.2826164,c,1,0.3578586,None,,,,,2,1,2025-10-03_13h28.52.734,Motor Sequence,,2025.1.1,60.21655075,2025-10-03 13h28.56.342558 +0530
-150,z,147,3,36,x,0,0.3023511,None,36,3,147,3,,,,,437.2961966,,437.2828608,437.2961966,438.2965545,438.2965545,438.2965545,438.2965545,438.2965545,439.2953041,439.2953041,439.6006947,x,0,0.3023511,None,,,,,2,1,2025-10-03_13h28.52.734,Motor Sequence,,2025.1.1,60.21655075,2025-10-03 13h28.56.342558 +0530
-50,x,148,0,37,v,0,0.2566442,None,37,0,148,0,,,,,439.6135079,,439.6009527,439.6135079,440.6134687,440.6134687,440.6134687,440.6134687,440.6134687,441.6126657,441.6126657,441.8815617,v,0,0.2566442,None,,,,,2,1,2025-10-03_13h28.52.734,Motor Sequence,,2025.1.1,60.21655075,2025-10-03 13h28.56.342558 +0530
150,v,149,1,37,z,0,0.2886208,None,37,1,149,1,,,,,441.896444,,441.8817661,441.896444,442.8800053,442.8800053,442.8800053,442.8800053,442.8963444,443.8961954,443.8961954,444.1987154,z,0,0.2886208,None,,,,,2,1,2025-10-03_13h28.52.734,Motor Sequence,,2025.1.1,60.21655075,2025-10-03 13h28.56.342558 +0530
50,c,150,2,37,c,1,0.3028918,None,37,2,150,2,,,,,444.2136094,,444.1989588,444.2136094,445.1974835,445.1974835,445.1974835,445.1974835,445.213,446.2133784,446.2133784,446.5166773,c,1,0.3028918,None,,,,,2,1,2025-10-03_13h28.52.734,Motor Sequence,,2025.1.1,60.21655075,2025-10-03 13h28.56.342558 +0530
-150,z,151,3,37,x,0,0.3695231,None,37,3,151,3,,,,,446.5302234,,446.5169774,446.5302234,447.5302162,447.5302162,447.5302162,447.5302162,447.5302162,448.5292473,448.5292473,448.8999922,x,0,0.3695231,None,,,,,2,1,2025-10-03_13h28.52.734,Motor Sequence,,2025.1.1,60.21655075,2025-10-03 13h28.56.342558 +0530
-50,x,152,0,38,v,0,0.2476771,None,38,0,152,0,,,,,448.9135211,,448.9002823,448.9135211,449.9128598,449.9128598,449.9128598,449.9128598,449.9128598,450.9121926,450.9121926,451.165374,v,0,0.2476771,None,,,,,2,1,2025-10-03_13h28.52.734,Motor Sequence,,2025.1.1,60.21655075,2025-10-03 13h28.56.342558 +0530
150,v,153,1,38,z,0,0.2668638,None,38,1,153,1,,,,,451.1799859,,451.1656087,451.1799859,452.1794817,452.1794817,452.1794817,452.1794817,452.1794817,453.1795585,453.1795585,453.4519599,z,0,0.2668638,None,,,,,2,1,2025-10-03_13h28.52.734,Motor Sequence,,2025.1.1,60.21655075,2025-10-03 13h28.56.342558 +0530
50,c,154,2,38,c,1,0.5020745,None,38,2,154,2,,,,,453.4630321,,453.4523077,453.4630321,454.4628199,454.4628199,454.4628199,454.4628199,454.4628199,455.4627229,455.4627229,455.9666063,c,1,0.5020745,None,,,,,2,1,2025-10-03_13h28.52.734,Motor Sequence,,2025.1.1,60.21655075,2025-10-03 13h28.56.342558 +0530
-150,z,155,3,38,x,0,0.3070214,None,38,3,155,3,,,,,455.9803567,,455.9669253,455.9803567,456.9790128,456.9790128,456.9790128,456.9790128,456.9790128,457.9796726,457.9796726,458.2992877,x,0,0.3070214,None,,,,,2,1,2025-10-03_13h28.52.734,Motor Sequence,,2025.1.1,60.21655075,2025-10-03 13h28.56.342558 +0530
-50,x,156,0,39,v,0,0.2602909,None,39,0,156,0,,,,,458.3131368,,458.2996407,458.3131368,459.3128968,459.3128968,459.3128968,459.3128968,459.3128968,460.3131541,460.3131541,460.5825462,v,0,0.2602909,None,,,,,2,1,2025-10-03_13h28.52.734,Motor Sequence,,2025.1.1,60.21655075,2025-10-03 13h28.56.342558 +0530
150,v,157,1,39,z,0,0.2599259,None,39,1,157,1,,,,,460.5964665,,460.5828108,460.5964665,461.5955602,461.5955602,461.5955602,461.5955602,461.5955602,462.5962553,462.5962553,462.8658228,z,0,0.2599259,None,,,,,2,1,2025-10-03_13h28.52.734,Motor Sequence,,2025.1.1,60.21655075,2025-10-03 13h28.56.342558 +0530
50,c,158,2,39,c,1,0.1169382,None,39,2,158,2,,,,,462.8805844,,462.8661587,462.8805844,463.8804313,463.8804313,463.8804313,463.8804313,463.8960122,464.8791756,464.8791756,465.0009715,c,1,0.1169382,None,,,,,2,1,2025-10-03_13h28.52.734,Motor Sequence,,2025.1.1,60.21655075,2025-10-03 13h28.56.342558 +0530
-150,z,159,3,39,x,0,0.8229079,None,39,3,159,3,,,,,465.0126929,,465.001197,465.0126929,466.0120909,466.0120909,466.0120909,466.0120909,466.0120909,467.0124477,467.0124477,467.8496528,x,0,0.8229079,None,,,,,2,1,2025-10-03_13h28.52.734,Motor Sequence,,2025.1.1,60.21655075,2025-10-03 13h28.56.342558 +0530
-50,x,160,0,40,v,0,0.202156,None,40,0,160,0,,,,,467.8633032,,467.8499107,467.8633032,468.8625397,468.8625397,468.8625397,468.8625397,468.8625397,469.8622739,469.8622739,470.0668153,v,0,0.202156,None,,,,,2,1,2025-10-03_13h28.52.734,Motor Sequence,,2025.1.1,60.21655075,2025-10-03 13h28.56.342558 +0530
150,v,161,1,40,z,0,0.4345806,None,40,1,161,1,,,,,470.0810256,,470.0670872,470.0810256,471.0802371,471.0802371,471.0802371,471.0802371,471.0958829,472.07904,472.07904,472.5157641,z,0,0.4345806,None,,,,,2,1,2025-10-03_13h28.52.734,Motor Sequence,,2025.1.1,60.21655075,2025-10-03 13h28.56.342558 +0530
50,c,162,2,40,c,1,0.2727938,None,40,2,162,2,,,,,472.529504,,472.5160185,472.529504,473.5299689,473.5299689,473.5299689,473.5299689,473.5299689,474.5290526,474.5290526,474.8144441,c,1,0.2727938,None,,,,,2,1,2025-10-03_13h28.52.734,Motor Sequence,,2025.1.1,60.21655075,2025-10-03 13h28.56.342558 +0530
-150,z,163,3,40,x,0,0.2735765,None,40,3,163,3,,,,,474.8289223,,474.814662,474.8289223,475.8289708,475.8289708,475.8289708,475.8289708,475.8289708,476.8299081,476.8299081,477.114477,x,0,0.2735765,None,,,,,2,1,2025-10-03_13h28.52.734,Motor Sequence,,2025.1.1,60.21655075,2025-10-03 13h28.56.342558 +0530
-50,x,164,0,41,v,0,0.2894101,None,41,0,164,0,,,,,477.1291553,,477.1146861,477.1291553,478.1291992,478.1291992,478.1291992,478.1291992,478.1291992,479.129399,479.129399,479.4329068,v,0,0.2894101,None,,,,,2,1,2025-10-03_13h28.52.734,Motor Sequence,,2025.1.1,60.21655075,2025-10-03 13h28.56.342558 +0530
150,v,165,1,41,z,0,0.3021323,None,41,1,165,1,,,,,479.4459914,,479.4332543,479.4459914,480.4454358,480.4454358,480.4454358,480.4454358,480.4454358,481.4484405,481.4484405,481.7642801,z,0,0.3021323,None,,,,,2,1,2025-10-03_13h28.52.734,Motor Sequence,,2025.1.1,60.21655075,2025-10-03 13h28.56.342558 +0530
50,c,166,2,41,c,1,0.3904347,None,41,2,166,2,,,,,481.780046,,481.7644764,481.780046,482.7793679,482.7793679,482.7793679,482.7793679,482.7793679,483.76326,483.76326,484.1661069,c,1,0.3904347,None,,,,,2,1,2025-10-03_13h28.52.734,Motor Sequence,,2025.1.1,60.21655075,2025-10-03 13h28.56.342558 +0530
-150,z,167,3,41,x,0,0.5692737,None,41,3,167,3,,,,,484.1791353,,484.1663242,484.1791353,485.1797042,485.1797042,485.1797042,485.1797042,485.1797042,486.1788954,486.1788954,486.7501273,x,0,0.5692737,None,,,,,2,1,2025-10-03_13h28.52.734,Motor Sequence,,2025.1.1,60.21655075,2025-10-03 13h28.56.342558 +0530
-50,x,168,0,42,v,0,0.3012205,None,42,0,168,0,,,,,486.7627133,,486.7504242,486.7627133,487.762556,487.762556,487.762556,487.762556,487.762556,488.763368,488.763368,489.0672013,v,0,0.3012205,None,,,,,2,1,2025-10-03_13h28.52.734,Motor Sequence,,2025.1.1,60.21655075,2025-10-03 13h28.56.342558 +0530
150,v,169,1,42,z,0,0.9573995,None,42,1,169,1,,,,,489.0787213,,489.0674797,489.0787213,490.0789657,490.0789657,490.0789657,490.0789657,490.0789657,491.0801805,491.0801805,492.049121,z,0,0.9573995,None,,,,,2,1,2025-10-03_13h28.52.734,Motor Sequence,,2025.1.1,60.21655075,2025-10-03 13h28.56.342558 +0530
50,c,170,2,42,c,1,0.2853037,None,42,2,170,2,,,,,492.062996,,492.0493785,492.062996,493.0629741,493.0629741,493.0629741,493.0629741,493.0629741,494.0622477,494.0622477,494.3512212,c,1,0.2853037,None,,,,,2,1,2025-10-03_13h28.52.734,Motor Sequence,,2025.1.1,60.21655075,2025-10-03 13h28.56.342558 +0530
-150,z,171,3,42,x,0,0.2953278,None,42,3,171,3,,,,,494.3631153,,494.3515794,494.3631153,495.3627138,495.3627138,495.3627138,495.3627138,495.3627138,496.3635399,496.3635399,496.6655038,x,0,0.2953278,None,,,,,2,1,2025-10-03_13h28.52.734,Motor Sequence,,2025.1.1,60.21655075,2025-10-03 13h28.56.342558 +0530
-50,x,172,0,43,v,0,0.4425236,None,43,0,172,0,,,,,496.6795764,,496.6658667,496.6795764,497.6791252,497.6791252,497.6791252,497.6791252,497.6791252,498.6791166,498.6791166,499.1320414,v,0,0.4425236,None,,,,,2,1,2025-10-03_13h28.52.734,Motor Sequence,,2025.1.1,60.21655075,2025-10-03 13h28.56.342558 +0530
150,v,173,1,43,z,0,0.612391,None,43,1,173,1,,,,,499.1473816,,499.1323646,499.1473816,500.1468756,500.1468756,500.1468756,500.1468756,500.1627613,501.1449179,501.1449179,501.7649706,z,0,0.612391,None,,,,,2,1,2025-10-03_13h28.52.734,Motor Sequence,,2025.1.1,60.21655075,2025-10-03 13h28.56.342558 +0530
50,c,174,2,43,c,1,0.2688958,None,43,2,174,2,,,,,501.77919,,501.7652319,501.77919,502.7795019,502.7795019,502.7795019,502.7795019,502.7795019,503.7782512,503.7782512,504.0499448,c,1,0.2688958,None,,,,,2,1,2025-10-03_13h28.52.734,Motor Sequence,,2025.1.1,60.21655075,2025-10-03 13h28.56.342558 +0530
-150,z,175,3,43,x,0,0.2455219,None,43,3,175,3,,,,,504.0625926,,504.0502662,504.0625926,505.063022,505.063022,505.063022,505.063022,505.063022,506.063256,506.063256,506.3151208,x,0,0.2455219,None,,,,,2,1,2025-10-03_13h28.52.734,Motor Sequence,,2025.1.1,60.21655075,2025-10-03 13h28.56.342558 +0530
-50,x,176,0,44,v,0,0.2334116,None,44,0,176,0,,,,,506.3305617,,506.3153935,506.3305617,507.3289947,507.3289947,507.3289947,507.3289947,507.3289947,508.3305196,508.3305196,508.5649686,v,0,0.2334116,None,,,,,2,1,2025-10-03_13h28.52.734,Motor Sequence,,2025.1.1,60.21655075,2025-10-03 13h28.56.342558 +0530
150,v,177,1,44,z,0,1.2419831,None,44,1,177,1,,,,,508.5795769,,508.5651811,508.5795769,509.5784322,509.5784322,509.5784322,509.5784322,509.5784322,510.5781643,510.5781643,511.8295176,z,0,1.2419831,None,,,,,2,1,2025-10-03_13h28.52.734,Motor Sequence,,2025.1.1,60.21655075,2025-10-03 13h28.56.342558 +0530
50,c,178,2,44,c,1,0.2827619,None,44,2,178,2,,,,,511.8450079,,511.8296885,511.8450079,512.8287441,512.8287441,512.8287441,512.8287441,512.8452423,513.8443532,513.8443532,514.1327375,c,1,0.2827619,None,,,,,2,1,2025-10-03_13h28.52.734,Motor Sequence,,2025.1.1,60.21655075,2025-10-03 13h28.56.342558 +0530
-150,z,179,3,44,x,0,0.292508,None,44,3,179,3,,,,,514.1463314,,514.1330492,514.1463314,515.1297275,515.1297275,515.1297275,515.1297275,515.1457047,516.1450031,516.1450031,516.4469176,x,0,0.292508,None,,,,,2,1,2025-10-03_13h28.52.734,Motor Sequence,,2025.1.1,60.21655075,2025-10-03 13h28.56.342558 +0530
-50,x,180,0,45,v,0,0.2777231,None,45,0,180,0,,,,,516.4624643,,516.4470981,516.4624643,517.4617712,517.4617712,517.4617712,517.4617712,517.4617712,518.4619654,518.4619654,518.7475895,v,0,0.2777231,None,,,,,2,1,2025-10-03_13h28.52.734,Motor Sequence,,2025.1.1,60.21655075,2025-10-03 13h28.56.342558 +0530
150,v,181,1,45,z,0,0.6875438,None,45,1,181,1,,,,,518.762212,,518.7478635,518.762212,519.7615669,519.7615669,519.7615669,519.7615669,519.7615669,520.7463532,520.7463532,521.4474047,z,0,0.6875438,None,,,,,2,1,2025-10-03_13h28.52.734,Motor Sequence,,2025.1.1,60.21655075,2025-10-03 13h28.56.342558 +0530
50,c,182,2,45,c,1,0.3154572,None,45,2,182,2,,,,,521.4620307,,521.4476186,521.4620307,522.4635419,522.4635419,522.4635419,522.4635419,522.4635419,523.4454882,523.4454882,523.7653846,c,1,0.3154572,None,,,,,2,1,2025-10-03_13h28.52.734,Motor Sequence,,2025.1.1,60.21655075,2025-10-03 13h28.56.342558 +0530
-150,z,183,3,45,x,0,1.7791162,None,45,3,183,3,,,,,523.7786926,,523.7656029,523.7786926,524.7782673,524.7782673,524.7782673,524.7782673,524.7782673,525.7788935,525.7788935,527.5637213,x,0,1.7791162,None,,,,,2,1,2025-10-03_13h28.52.734,Motor Sequence,,2025.1.1,60.21655075,2025-10-03 13h28.56.342558 +0530
-50,x,184,0,46,v,0,0.4245432,None,46,0,184,0,,,,,527.5787032,,527.5639377,527.5787032,528.5624281,528.5624281,528.5624281,528.5624281,528.5803925,529.578952,529.578952,530.0154579,v,0,0.4245432,None,,,,,2,1,2025-10-03_13h28.52.734,Motor Sequence,,2025.1.1,60.21655075,2025-10-03 13h28.56.342558 +0530
150,v,185,1,46,z,0,1.7606576,None,46,1,185,1,,,,,530.0294138,,530.0157094,530.0294138,531.0283877,531.0283877,531.0283877,531.0283877,531.0283877,532.0278604,532.0278604,533.7980313,z,0,1.7606576,None,,,,,2,1,2025-10-03_13h28.52.734,Motor Sequence,,2025.1.1,60.21655075,2025-10-03 13h28.56.342558 +0530
50,c,186,2,46,c,1,0.2762894,None,46,2,186,2,,,,,533.8121108,,533.7982998,533.8121108,534.8119226,534.8119226,534.8119226,534.8119226,534.8119226,535.8136253,535.8136253,536.097754,c,1,0.2762894,None,,,,,2,1,2025-10-03_13h28.52.734,Motor Sequence,,2025.1.1,60.21655075,2025-10-03 13h28.56.342558 +0530
-150,z,187,3,46,x,0,0.2680675,None,46,3,187,3,,,,,536.1123014,,536.097999,536.1123014,537.1114548,537.1114548,537.1114548,537.1114548,537.1114548,538.1129023,538.1129023,538.3834157,x,0,0.2680675,None,,,,,2,1,2025-10-03_13h28.52.734,Motor Sequence,,2025.1.1,60.21655075,2025-10-03 13h28.56.342558 +0530
-50,x,188,0,47,v,0,0.2754816,None,47,0,188,0,,,,,538.3955001,,538.383727,538.3955001,539.3947235,539.3947235,539.3947235,539.3947235,539.3947235,540.3969414,540.3969414,540.6828252,v,0,0.2754816,None,,,,,2,1,2025-10-03_13h28.52.734,Motor Sequence,,2025.1.1,60.21655075,2025-10-03 13h28.56.342558 +0530
150,v,189,1,47,z,0,0.6932451,None,47,1,189,1,,,,,540.6987576,,540.6831042,540.6987576,541.6954325,541.6954325,541.6954325,541.6954325,541.7113534,542.6949863,542.6949863,543.3991774,z,0,0.6932451,None,,,,,2,1,2025-10-03_13h28.52.734,Motor Sequence,,2025.1.1,60.21655075,2025-10-03 13h28.56.342558 +0530
50,c,190,2,47,c,1,0.2676538,None,47,2,190,2,,,,,543.4124352,,543.3994474,543.4124352,544.411111,544.411111,544.411111,544.411111,544.411111,545.411623,545.411623,545.6836575,c,1,0.2676538,None,,,,,2,1,2025-10-03_13h28.52.734,Motor Sequence,,2025.1.1,60.21655075,2025-10-03 13h28.56.342558 +0530
-150,z,191,3,47,x,0,0.2999784,None,47,3,191,3,,,,,545.6954747,,545.6839382,545.6954747,546.695165,546.695165,546.695165,546.695165,546.695165,547.6965115,547.6965115,547.9993925,x,0,0.2999784,None,,,,,2,1,2025-10-03_13h28.52.734,Motor Sequence,,2025.1.1,60.21655075,2025-10-03 13h28.56.342558 +0530
-50,x,192,0,48,v,0,0.2487919,None,48,0,192,0,,,,,548.0122385,,547.9997411,548.0122385,549.0119317,549.0119317,549.0119317,549.0119317,549.0119317,550.0128592,550.0128592,550.2692026,v,0,0.2487919,None,,,,,2,1,2025-10-03_13h28.52.734,Motor Sequence,,2025.1.1,60.21655075,2025-10-03 13h28.56.342558 +0530
150,v,193,1,48,z,0,0.2688543,None,48,1,193,1,,,,,550.2786022,,550.269564,550.2786022,551.2784107,551.2784107,551.2784107,551.2784107,551.2784107,552.2786715,552.2786715,552.5493245,z,0,0.2688543,None,,,,,2,1,2025-10-03_13h28.52.734,Motor Sequence,,2025.1.1,60.21655075,2025-10-03 13h28.56.342558 +0530
50,c,194,2,48,c,1,0.271731,None,48,2,194,2,,,,,552.5616216,,552.5495739,552.5616216,553.5625576,553.5625576,553.5625576,553.5625576,553.5625576,554.5623471,554.5623471,554.8484251,c,1,0.271731,None,,,,,2,1,2025-10-03_13h28.52.734,Motor Sequence,,2025.1.1,60.21655075,2025-10-03 13h28.56.342558 +0530
-150,z,195,3,48,x,0,0.2506802,None,48,3,195,3,,,,,554.8620755,,554.8487156,554.8620755,555.8616167,555.8616167,555.8616167,555.8616167,555.8616167,556.861444,556.861444,557.1166331,x,0,0.2506802,None,,,,,2,1,2025-10-03_13h28.52.734,Motor Sequence,,2025.1.1,60.21655075,2025-10-03 13h28.56.342558 +0530
-50,x,196,0,49,v,0,0.368237,None,49,0,196,0,,,,,557.1285317,,557.1169984,557.1285317,558.127737,558.127737,558.127737,558.127737,558.127737,559.1294219,559.1294219,559.4991019,v,0,0.368237,None,,,,,2,1,2025-10-03_13h28.52.734,Motor Sequence,,2025.1.1,60.21655075,2025-10-03 13h28.56.342558 +0530
150,v,197,1,49,z,0,0.516121,None,49,1,197,1,,,,,559.5121179,,559.4993849,559.5121179,560.5123593,560.5123593,560.5123593,560.5123593,560.5123593,561.5118933,561.5118933,562.0310688,z,0,0.516121,None,,,,,2,1,2025-10-03_13h28.52.734,Motor Sequence,,2025.1.1,60.21655075,2025-10-03 13h28.56.342558 +0530
50,c,198,2,49,c,1,0.236077,None,49,2,198,2,,,,,562.045784,,562.0313018,562.045784,563.0458743,563.0458743,563.0458743,563.0458743,563.0458743,564.0456225,564.0456225,564.2981366,c,1,0.236077,None,,,,,2,1,2025-10-03_13h28.52.734,Motor Sequence,,2025.1.1,60.21655075,2025-10-03 13h28.56.342558 +0530
-150,z,199,3,49,x,0,1.3475732,None,49,3,199,3,,,,,564.3121359,,564.2983785,564.3121359,565.3119256,565.3119256,565.3119256,565.3119256,565.3119256,566.311788,566.311788,567.6658946,x,0,1.3475732,None,,,,,2,1,2025-10-03_13h28.52.734,Motor Sequence,,2025.1.1,60.21655075,2025-10-03 13h28.56.342558 +0530
150,v,0,0,0,z,0,2.7748492,None,,,,,0,0,0,1,567.6946749,,567.6814388,567.6946749,568.6786982,568.6786982,568.6786982,568.6786982,568.695217,569.6782925,569.6782925,572.4656569,,,,,z,0,2.7748492,None,2,1,2025-10-03_13h28.52.734,Motor Sequence,,2025.1.1,60.21655075,2025-10-03 13h28.56.342558 +0530
50,c,1,1,0,c,1,0.2959915,None,,,,,0,1,1,2,572.4784712,,572.4659953,572.4784712,573.4773986,573.4773986,573.4773986,573.4773986,573.4773986,574.4788656,574.4788656,574.7800575,,,,,c,1,0.2959915,None,2,1,2025-10-03_13h28.52.734,Motor Sequence,,2025.1.1,60.21655075,2025-10-03 13h28.56.342558 +0530
-50,x,2,2,0,x,1,0.458046,None,,,,,0,2,2,0,574.7946058,,574.7802626,574.7946058,575.7945355,575.7945355,575.7945355,575.7945355,575.7945355,576.7946033,576.7946033,577.2640703,,,,,x,1,0.458046,None,2,1,2025-10-03_13h28.52.734,Motor Sequence,,2025.1.1,60.21655075,2025-10-03 13h28.56.342558 +0530
-150,z,3,3,0,v,0,0.5551359,None,,,,,0,3,3,3,577.2789951,,577.2643804,577.2789951,578.2781818,578.2781818,578.2781818,578.2781818,578.2781818,579.2776273,579.2776273,579.8528185,,,,,v,0,0.5551359,None,2,1,2025-10-03_13h28.52.734,Motor Sequence,,2025.1.1,60.21655075,2025-10-03 13h28.56.342558 +0530
150,v,4,0,1,z,0,2.195839,None,,,,,1,0,4,1,579.8613659,,579.8530212,579.8613659,580.8609398,580.8609398,580.8609398,580.8609398,580.8609398,581.8608482,581.8608482,584.0642751,,,,,z,0,2.195839,None,2,1,2025-10-03_13h28.52.734,Motor Sequence,,2025.1.1,60.21655075,2025-10-03 13h28.56.342558 +0530
50,c,5,1,1,c,1,3.8694367,None,,,,,1,1,5,2,584.0784655,,584.0645414,584.0784655,585.0775429,585.0775429,585.0775429,585.0775429,585.0775429,586.0780779,586.0780779,589.9488628,,,,,c,1,3.8694367,None,2,1,2025-10-03_13h28.52.734,Motor Sequence,,2025.1.1,60.21655075,2025-10-03 13h28.56.342558 +0530
-50,x,6,2,1,v,0,1.1082106,None,,,,,1,2,6,0,589.9616642,,589.949172,589.9616642,590.9609371,590.9609371,590.9609371,590.9609371,590.9609371,591.961551,591.961551,593.0831302,,,,,v,0,1.1082106,None,2,1,2025-10-03_13h28.52.734,Motor Sequence,,2025.1.1,60.21655075,2025-10-03 13h28.56.342558 +0530
-150,z,7,3,1,x,0,0.665348,None,,,,,1,3,7,3,593.0946548,,593.0834385,593.0946548,594.0938792,594.0938792,594.0938792,594.0938792,594.0938792,595.0942205,595.0942205,595.7652575,,,,,x,0,0.665348,None,2,1,2025-10-03_13h28.52.734,Motor Sequence,,2025.1.1,60.21655075,2025-10-03 13h28.56.342558 +0530
150,v,8,0,2,z,0,1.3775961,None,,,,,2,0,8,1,595.779158,,595.7656235,595.779158,596.7783471,596.7783471,596.7783471,596.7783471,596.7953782,597.7785339,597.7785339,599.1641101,,,,,z,0,1.3775961,None,2,1,2025-10-03_13h28.52.734,Motor Sequence,,2025.1.1,60.21655075,2025-10-03 13h28.56.342558 +0530
-50,x,9,1,2,v,0,0.6389867,None,,,,,2,1,9,0,599.1788453,,599.1644314,599.1788453,600.1771672,600.1771672,600.1771672,600.1771672,600.1771672,601.1778493,601.1778493,601.8306123,,,,,v,0,0.6389867,None,2,1,2025-10-03_13h28.52.734,Motor Sequence,,2025.1.1,60.21655075,2025-10-03 13h28.56.342558 +0530
50,c,10,2,2,c,1,2.0541035,None,,,,,2,2,10,2,601.8453684,,601.8309168,601.8453684,602.8451137,602.8451137,602.8451137,602.8451137,602.8451137,603.8445117,603.8445117,605.9154999,,,,,c,1,2.0541035,None,2,1,2025-10-03_13h28.52.734,Motor Sequence,,2025.1.1,60.21655075,2025-10-03 13h28.56.342558 +0530
-150,z,11,3,2,x,0,0.700952,None,,,,,2,3,11,3,605.9287093,,605.9158692,605.9287093,606.9273337,606.9273337,606.9273337,606.9273337,606.9273337,607.9284669,607.9284669,608.6323273,,,,,x,0,0.700952,None,2,1,2025-10-03_13h28.52.734,Motor Sequence,,2025.1.1,60.21655075,2025-10-03 13h28.56.342558 +0530
-50,x,12,0,3,v,0,0.4443693,None,,,,,3,0,12,0,608.6452788,,608.6326045,608.6452788,609.6453205,609.6453205,609.6453205,609.6453205,609.6453205,610.6447109,610.6447109,611.0972338,,,,,v,0,0.4443693,None,2,1,2025-10-03_13h28.52.734,Motor Sequence,,2025.1.1,60.21655075,2025-10-03 13h28.56.342558 +0530
-150,z,13,1,3,x,0,0.7167635,None,,,,,3,1,13,3,611.1114391,,611.0974818,611.1114391,612.110738,612.110738,612.110738,612.110738,612.110738,613.1109318,613.1109318,613.8330888,,,,,x,0,0.7167635,None,2,1,2025-10-03_13h28.52.734,Motor Sequence,,2025.1.1,60.21655075,2025-10-03 13h28.56.342558 +0530
50,c,14,2,3,c,1,0.8881951,None,,,,,3,2,14,2,613.8445893,,613.8333984,613.8445893,614.8442126,614.8442126,614.8442126,614.8442126,614.8442126,615.8453048,615.8453048,616.7470482,,,,,c,1,0.8881951,None,2,1,2025-10-03_13h28.52.734,Motor Sequence,,2025.1.1,60.21655075,2025-10-03 13h28.56.342558 +0530
150,v,15,3,3,z,0,0.6489289,None,,,,,3,3,15,1,616.7614615,,616.7473108,616.7614615,617.7615624,617.7615624,617.7615624,617.7615624,617.7615624,618.7613767,618.7613767,619.415214,,,,,z,0,0.6489289,None,2,1,2025-10-03_13h28.52.734,Motor Sequence,,2025.1.1,60.21655075,2025-10-03 13h28.56.342558 +0530
-50,x,16,0,4,v,0,0.600091,None,,,,,4,0,16,0,619.4280272,,619.4154592,619.4280272,620.4281583,620.4281583,620.4281583,620.4281583,620.4281583,621.4281633,621.4281633,622.0307539,,,,,v,0,0.600091,None,2,1,2025-10-03_13h28.52.734,Motor Sequence,,2025.1.1,60.21655075,2025-10-03 13h28.56.342558 +0530
-150,z,17,1,4,x,0,0.6347472,None,,,,,4,1,17,3,622.044778,,622.0311101,622.044778,623.0455248,623.0455248,623.0455248,623.0455248,623.0455248,624.0441948,624.0441948,624.6815766,,,,,x,0,0.6347472,None,2,1,2025-10-03_13h28.52.734,Motor Sequence,,2025.1.1,60.21655075,2025-10-03 13h28.56.342558 +0530
50,c,18,2,4,c,1,0.855082,None,,,,,4,2,18,2,624.694785,,624.6819616,624.694785,625.6939519,625.6939519,625.6939519,625.6939519,625.6939519,626.6946074,626.6946074,627.5653576,,,,,c,1,0.855082,None,2,1,2025-10-03_13h28.52.734,Motor Sequence,,2025.1.1,60.21655075,2025-10-03 13h28.56.342558 +0530
150,v,19,3,4,z,0,0.480575,None,,,,,4,3,19,1,627.5777061,,627.5656707,627.5777061,628.5774305,628.5774305,628.5774305,628.5774305,628.5774305,629.5774917,629.5774917,630.0641983,,,,,z,0,0.480575,None,2,1,2025-10-03_13h28.52.734,Motor Sequence,,2025.1.1,60.21655075,2025-10-03 13h28.56.342558 +0530
-50,x,20,0,5,v,0,0.3830155,None,,,,,5,0,20,0,630.0779947,,630.0644319,630.0779947,631.0786828,631.0786828,631.0786828,631.0786828,631.0786828,632.0774806,632.0774806,632.4624335,,,,,v,0,0.3830155,None,2,1,2025-10-03_13h28.52.734,Motor Sequence,,2025.1.1,60.21655075,2025-10-03 13h28.56.342558 +0530
-150,z,21,1,5,x,0,0.5671768,None,,,,,5,1,21,3,632.4776779,,632.4626144,632.4776779,633.4776588,633.4776588,633.4776588,633.4776588,633.4776588,634.4782953,634.4782953,635.04662,,,,,x,0,0.5671768,None,2,1,2025-10-03_13h28.52.734,Motor Sequence,,2025.1.1,60.21655075,2025-10-03 13h28.56.342558 +0530
50,c,22,2,5,c,1,4.1313795,None,,,,,5,2,22,2,635.0620176,,635.0468375,635.0620176,636.0608325,636.0608325,636.0608325,636.0608325,636.0608325,637.0606116,637.0606116,641.1981849,,,,,c,1,4.1313795,None,2,1,2025-10-03_13h28.52.734,Motor Sequence,,2025.1.1,60.21655075,2025-10-03 13h28.56.342558 +0530
150,v,23,3,5,z,0,2.2552926,None,,,,,5,3,23,1,641.2118561,,641.198613,641.2118561,642.2107498,642.2107498,642.2107498,642.2107498,642.2107498,643.2111702,643.2111702,645.4797235,,,,,z,0,2.2552926,None,2,1,2025-10-03_13h28.52.734,Motor Sequence,,2025.1.1,60.21655075,2025-10-03 13h28.56.342558 +0530
-50,x,24,0,6,v,0,0.7796241,None,,,,,6,0,24,0,645.4940872,,645.4799449,645.4940872,646.4944534,646.4944534,646.4944534,646.4944534,646.4944534,647.493996,647.493996,648.2798754,,,,,v,0,0.7796241,None,2,1,2025-10-03_13h28.52.734,Motor Sequence,,2025.1.1,60.21655075,2025-10-03 13h28.56.342558 +0530
-150,z,25,1,6,x,0,0.8832956,None,,,,,6,1,25,3,648.2943462,,648.2800972,648.2943462,649.2936775,649.2936775,649.2936775,649.2936775,649.2936775,650.2933641,650.2933641,651.1803548,,,,,x,0,0.8832956,None,2,1,2025-10-03_13h28.52.734,Motor Sequence,,2025.1.1,60.21655075,2025-10-03 13h28.56.342558 +0530
50,c,26,2,6,c,1,1.4543645,None,,,,,6,2,26,2,651.1952945,,651.180713,651.1952945,652.1937224,652.1937224,652.1937224,652.1937224,652.1937224,653.1942163,653.1942163,654.6631821,,,,,c,1,1.4543645,None,2,1,2025-10-03_13h28.52.734,Motor Sequence,,2025.1.1,60.21655075,2025-10-03 13h28.56.342558 +0530
150,v,27,3,6,z,0,0.9631863,None,,,,,6,3,27,1,654.678125,,654.6635281,654.678125,655.6767107,655.6767107,655.6767107,655.6767107,655.6767107,656.6771135,656.6771135,657.6468625,,,,,z,0,0.9631863,None,2,1,2025-10-03_13h28.52.734,Motor Sequence,,2025.1.1,60.21655075,2025-10-03 13h28.56.342558 +0530
150,v,28,0,7,z,0,1.9770896,None,,,,,7,0,28,1,657.6606218,,657.6471303,657.6606218,658.6604129,658.6604129,658.6604129,658.6604129,658.6604129,659.6608403,659.6608403,661.647094,,,,,z,0,1.9770896,None,2,1,2025-10-03_13h28.52.734,Motor Sequence,,2025.1.1,60.21655075,2025-10-03 13h28.56.342558 +0530
50,c,29,1,7,c,1,1.2864025,None,,,,,7,1,29,2,661.6616108,,661.6474173,661.6616108,662.6608593,662.6608593,662.6608593,662.6608593,662.6608593,663.6611999,663.6611999,664.9640683,,,,,c,1,1.2864025,None,2,1,2025-10-03_13h28.52.734,Motor Sequence,,2025.1.1,60.21655075,2025-10-03 13h28.56.342558 +0530
-150,z,30,2,7,x,0,0.7762293,None,,,,,7,2,30,3,664.9777955,,664.9643748,664.9777955,665.977874,665.977874,665.977874,665.977874,665.977874,666.9776124,666.9776124,667.7638476,,,,,x,0,0.7762293,None,2,1,2025-10-03_13h28.52.734,Motor Sequence,,2025.1.1,60.21655075,2025-10-03 13h28.56.342558 +0530
-50,x,31,3,7,v,0,0.5508597,None,,,,,7,3,31,0,667.7775471,,667.7641304,667.7775471,668.7774873,668.7774873,668.7774873,668.7774873,668.7774873,669.7767917,669.7767917,670.3315925,,,,,v,0,0.5508597,None,2,1,2025-10-03_13h28.52.734,Motor Sequence,,2025.1.1,60.21655075,2025-10-03 13h28.56.342558 +0530
-50,x,32,0,8,v,0,0.7491213,None,,,,,8,0,32,0,670.343879,,670.3318474,670.343879,671.3443613,671.3443613,671.3443613,671.3443613,671.3443613,672.3439038,672.3439038,673.0949797,,,,,v,0,0.7491213,None,2,1,2025-10-03_13h28.52.734,Motor Sequence,,2025.1.1,60.21655075,2025-10-03 13h28.56.342558 +0530
-150,z,33,1,8,x,0,0.6926558,None,,,,,8,1,33,3,673.1107501,,673.0952663,673.1107501,674.0948628,674.0948628,674.0948628,674.0948628,674.1109846,675.1105636,675.1105636,675.8129493,,,,,x,0,0.6926558,None,2,1,2025-10-03_13h28.52.734,Motor Sequence,,2025.1.1,60.21655075,2025-10-03 13h28.56.342558 +0530
150,v,34,2,8,z,0,1.0134825,None,,,,,8,2,34,1,675.8275469,,675.81326,675.8275469,676.8115948,676.8115948,676.8115948,676.8115948,676.8274269,677.8281032,677.8281032,678.8485169,,,,,z,0,1.0134825,None,2,1,2025-10-03_13h28.52.734,Motor Sequence,,2025.1.1,60.21655075,2025-10-03 13h28.56.342558 +0530
50,c,35,3,8,c,1,1.2157953,None,,,,,8,3,35,2,678.8610444,,678.8488597,678.8610444,679.8608066,679.8608066,679.8608066,679.8608066,679.8608066,680.8606514,680.8606514,682.0792284,,,,,c,1,1.2157953,None,2,1,2025-10-03_13h28.52.734,Motor Sequence,,2025.1.1,60.21655075,2025-10-03 13h28.56.342558 +0530
-50,x,36,0,9,v,0,0.7079968,None,,,,,9,0,36,0,682.0935749,,682.079443,682.0935749,683.0776233,683.0776233,683.0776233,683.0776233,683.0940061,684.0939823,684.0939823,684.8124449,,,,,v,0,0.7079968,None,2,1,2025-10-03_13h28.52.734,Motor Sequence,,2025.1.1,60.21655075,2025-10-03 13h28.56.342558 +0530
-150,z,37,1,9,x,0,0.6544721,None,,,,,9,1,37,3,684.8282352,,684.8127304,684.8282352,685.811498,685.811498,685.811498,685.811498,685.8271934,686.8271452,686.8271452,687.4957889,,,,,x,0,0.6544721,None,2,1,2025-10-03_13h28.52.734,Motor Sequence,,2025.1.1,60.21655075,2025-10-03 13h28.56.342558 +0530
50,c,38,2,9,c,1,1.8992686,None,,,,,9,2,38,2,687.5100812,,687.4960328,687.5100812,688.510135,688.510135,688.510135,688.510135,688.510135,689.5098061,689.5098061,691.4125227,,,,,c,1,1.8992686,None,2,1,2025-10-03_13h28.52.734,Motor Sequence,,2025.1.1,60.21655075,2025-10-03 13h28.56.342558 +0530
150,v,39,3,9,z,0,1.5795322,None,,,,,9,3,39,1,691.4270598,,691.4127985,691.4270598,692.4267678,692.4267678,692.4267678,692.4267678,692.4267678,693.427549,693.427549,695.0122581,,,,,z,0,1.5795322,None,2,1,2025-10-03_13h28.52.734,Motor Sequence,,2025.1.1,60.21655075,2025-10-03 13h28.56.342558 +0530
150,v,40,0,10,z,0,1.785171,None,,,,,10,0,40,1,695.0277567,,695.0125436,695.0277567,696.0267801,696.0267801,696.0267801,696.0267801,696.0267801,697.0269338,697.0269338,698.8131556,,,,,z,0,1.785171,None,2,1,2025-10-03_13h28.52.734,Motor Sequence,,2025.1.1,60.21655075,2025-10-03 13h28.56.342558 +0530
-150,z,41,1,10,x,0,0.8232763,None,,,,,10,1,41,3,698.8276269,,698.8134547,698.8276269,699.82656,699.82656,699.82656,699.82656,699.82656,700.8265576,700.8265576,701.6635344,,,,,x,0,0.8232763,None,2,1,2025-10-03_13h28.52.734,Motor Sequence,,2025.1.1,60.21655075,2025-10-03 13h28.56.342558 +0530
-50,x,42,2,10,v,0,0.4803235,None,,,,,10,2,42,0,701.677459,,701.6638874,701.677459,702.6765899,702.6765899,702.6765899,702.6765899,702.6765899,703.6767283,703.6767283,704.1624567,,,,,v,0,0.4803235,None,2,1,2025-10-03_13h28.52.734,Motor Sequence,,2025.1.1,60.21655075,2025-10-03 13h28.56.342558 +0530
50,c,43,3,10,c,1,2.6902372,None,,,,,10,3,43,2,704.1774113,,704.162659,704.1774113,705.1770962,705.1770962,705.1770962,705.1770962,705.1770962,706.1758526,706.1758526,708.8820954,,,,,c,1,2.6902372,None,2,1,2025-10-03_13h28.52.734,Motor Sequence,,2025.1.1,60.21655075,2025-10-03 13h28.56.342558 +0530
-50,x,44,0,11,v,0,0.8352389,None,,,,,11,0,44,0,708.8931441,,708.8823479,708.8931441,709.893131,709.893131,709.893131,709.893131,709.893131,710.8932028,710.8932028,711.7294565,,,,,v,0,0.8352389,None,2,1,2025-10-03_13h28.52.734,Motor Sequence,,2025.1.1,60.21655075,2025-10-03 13h28.56.342558 +0530
150,v,45,1,11,z,0,0.9191574,None,,,,,11,1,45,1,711.7435207,,711.7296871,711.7435207,712.7432067,712.7432067,712.7432067,712.7432067,712.7432067,713.7424998,713.7424998,714.664825,,,,,z,0,0.9191574,None,2,1,2025-10-03_13h28.52.734,Motor Sequence,,2025.1.1,60.21655075,2025-10-03 13h28.56.342558 +0530
-150,z,46,2,11,x,0,0.3863237,None,,,,,11,2,46,3,714.6765462,,714.6651038,714.6765462,715.6761624,715.6761624,715.6761624,715.6761624,715.6761624,716.6759778,716.6759778,717.0799278,,,,,x,0,0.3863237,None,2,1,2025-10-03_13h28.52.734,Motor Sequence,,2025.1.1,60.21655075,2025-10-03 13h28.56.342558 +0530
50,c,47,3,11,c,1,2.5565657,None,,,,,11,3,47,2,717.0933499,,717.0802001,717.0933499,718.0935688,718.0935688,718.0935688,718.0935688,718.0935688,719.0935952,719.0935952,721.6641203,,,,,c,1,2.5565657,None,2,1,2025-10-03_13h28.52.734,Motor Sequence,,2025.1.1,60.21655075,2025-10-03 13h28.56.342558 +0530
50,c,48,0,12,c,1,0.7849914,None,,,,,12,0,48,2,721.67682,,721.6643796,721.67682,722.6767994,722.6767994,722.6767994,722.6767994,722.6767994,723.6763444,723.6763444,724.4638179,,,,,c,1,0.7849914,None,2,1,2025-10-03_13h28.52.734,Motor Sequence,,2025.1.1,60.21655075,2025-10-03 13h28.56.342558 +0530
150,v,49,1,12,z,0,0.5887424,None,,,,,12,1,49,1,724.4773117,,724.4641664,724.4773117,725.4758358,725.4758358,725.4758358,725.4758358,725.4758358,726.4766759,726.4766759,727.0790496,,,,,z,0,0.5887424,None,2,1,2025-10-03_13h28.52.734,Motor Sequence,,2025.1.1,60.21655075,2025-10-03 13h28.56.342558 +0530
-150,z,50,2,12,x,0,0.3680445,None,,,,,12,2,50,3,727.0932378,,727.0792941,727.0932378,728.0932087,728.0932087,728.0932087,728.0932087,728.0932087,729.0948909,729.0948909,729.46393,,,,,x,0,0.3680445,None,2,1,2025-10-03_13h28.52.734,Motor Sequence,,2025.1.1,60.21655075,2025-10-03 13h28.56.342558 +0530
-50,x,51,3,12,v,0,0.3738279,None,,,,,12,3,51,0,729.4769655,,729.4642613,729.4769655,730.4765889,730.4765889,730.4765889,730.4765889,730.4765889,731.4765612,731.4765612,731.8628592,,,,,v,0,0.3738279,None,2,1,2025-10-03_13h28.52.734,Motor Sequence,,2025.1.1,60.21655075,2025-10-03 13h28.56.342558 +0530
-50,x,52,0,13,v,0,0.628175,None,,,,,13,0,52,0,731.8772213,,731.8631156,731.8772213,732.8758739,732.8758739,732.8758739,732.8758739,732.8758739,733.8772128,733.8772128,734.5120688,,,,,v,0,0.628175,None,2,1,2025-10-03_13h28.52.734,Motor Sequence,,2025.1.1,60.21655075,2025-10-03 13h28.56.342558 +0530
50,c,53,1,13,c,1,1.2692341,None,,,,,13,1,53,2,734.5268854,,734.5122991,734.5268854,735.5264589,735.5264589,735.5264589,735.5264589,735.5264589,736.5263032,736.5263032,737.797469,,,,,c,1,1.2692341,None,2,1,2025-10-03_13h28.52.734,Motor Sequence,,2025.1.1,60.21655075,2025-10-03 13h28.56.342558 +0530
150,v,54,2,13,z,0,0.6576766,None,,,,,13,2,54,1,737.8105461,,737.7978617,737.8105461,738.8100118,738.8100118,738.8100118,738.8100118,738.8100118,739.8098514,739.8098514,740.4799908,,,,,z,0,0.6576766,None,2,1,2025-10-03_13h28.52.734,Motor Sequence,,2025.1.1,60.21655075,2025-10-03 13h28.56.342558 +0530
-150,z,55,3,13,x,0,0.5454164,None,,,,,13,3,55,3,740.4940443,,740.4803172,740.4940443,741.4942813,741.4942813,741.4942813,741.4942813,741.4942813,742.4942092,742.4942092,743.0465501,,,,,x,0,0.5454164,None,2,1,2025-10-03_13h28.52.734,Motor Sequence,,2025.1.1,60.21655075,2025-10-03 13h28.56.342558 +0530
-150,z,56,0,14,x,0,0.523223,None,,,,,14,0,56,3,743.0608465,,743.0469335,743.0608465,744.0596468,744.0596468,744.0596468,744.0596468,744.0596468,745.059618,745.059618,745.5958074,,,,,x,0,0.523223,None,2,1,2025-10-03_13h28.52.734,Motor Sequence,,2025.1.1,60.21655075,2025-10-03 13h28.56.342558 +0530
-50,x,57,1,14,v,0,0.6791875,None,,,,,14,1,57,0,745.6110299,,745.596148,745.6110299,746.6099557,746.6099557,746.6099557,746.6099557,746.6260134,747.6092983,747.6092983,748.2954151,,,,,v,0,0.6791875,None,2,1,2025-10-03_13h28.52.734,Motor Sequence,,2025.1.1,60.21655075,2025-10-03 13h28.56.342558 +0530
150,v,58,2,14,z,0,1.2806489,None,,,,,14,2,58,1,748.3097908,,748.2956869,748.3097908,749.3092878,749.3092878,749.3092878,749.3092878,749.3092878,750.3094566,750.3094566,751.5960133,,,,,z,0,1.2806489,None,2,1,2025-10-03_13h28.52.734,Motor Sequence,,2025.1.1,60.21655075,2025-10-03 13h28.56.342558 +0530
50,c,59,3,14,c,1,1.014219,None,,,,,14,3,59,2,751.6108183,,751.596335,751.6108183,752.610088,752.610088,752.610088,752.610088,752.610088,753.6104271,753.6104271,754.6300509,,,,,c,1,1.014219,None,2,1,2025-10-03_13h28.52.734,Motor Sequence,,2025.1.1,60.21655075,2025-10-03 13h28.56.342558 +0530
50,c,60,0,15,c,1,1.5062422,None,,,,,15,0,60,2,754.6430971,,754.630295,754.6430971,755.6434726,755.6434726,755.6434726,755.6434726,755.6434726,756.6435859,756.6435859,758.1623957,,,,,c,1,1.5062422,None,2,1,2025-10-03_13h28.52.734,Motor Sequence,,2025.1.1,60.21655075,2025-10-03 13h28.56.342558 +0530
-50,x,61,1,15,v,0,0.8775081,None,,,,,15,1,61,0,758.1771057,,758.1627676,758.1771057,759.1760537,759.1760537,759.1760537,759.1760537,759.1921307,760.1763201,760.1763201,761.062373,,,,,v,0,0.8775081,None,2,1,2025-10-03_13h28.52.734,Motor Sequence,,2025.1.1,60.21655075,2025-10-03 13h28.56.342558 +0530
-150,z,62,2,15,x,0,0.764046,None,,,,,15,2,62,3,761.076523,,761.0626413,761.076523,762.0764736,762.0764736,762.0764736,762.0764736,762.0764736,763.0760844,763.0760844,763.8454964,,,,,x,0,0.764046,None,2,1,2025-10-03_13h28.52.734,Motor Sequence,,2025.1.1,60.21655075,2025-10-03 13h28.56.342558 +0530
150,v,63,3,15,z,0,1.4715898,None,,,,,15,3,63,1,763.859514,,763.8457388,763.859514,764.8597559,764.8597559,764.8597559,764.8597559,764.8597559,765.8592831,765.8592831,767.33275,,,,,z,0,1.4715898,None,2,1,2025-10-03_13h28.52.734,Motor Sequence,,2025.1.1,60.21655075,2025-10-03 13h28.56.342558 +0530
50,c,64,0,16,c,1,1.1838831,None,,,,,16,0,64,2,767.3427243,,767.3331286,767.3427243,768.3421777,768.3421777,768.3421777,768.3421777,768.3421777,769.3426551,769.3426551,770.5285155,,,,,c,1,1.1838831,None,2,1,2025-10-03_13h28.52.734,Motor Sequence,,2025.1.1,60.21655075,2025-10-03 13h28.56.342558 +0530
150,v,65,1,16,z,0,1.2044004,None,,,,,16,1,65,1,770.5430609,,770.528786,770.5430609,771.5421929,771.5421929,771.5421929,771.5421929,771.5421929,772.5421093,772.5421093,773.762513,,,,,z,0,1.2044004,None,2,1,2025-10-03_13h28.52.734,Motor Sequence,,2025.1.1,60.21655075,2025-10-03 13h28.56.342558 +0530
-150,z,66,2,16,x,0,0.31572,None,,,,,16,2,66,3,773.7760096,,773.7627688,773.7760096,774.7768871,774.7768871,774.7768871,774.7768871,774.7768871,775.7768373,775.7768373,776.0946785,,,,,x,0,0.31572,None,2,1,2025-10-03_13h28.52.734,Motor Sequence,,2025.1.1,60.21655075,2025-10-03 13h28.56.342558 +0530
-50,x,67,3,16,v,0,0.2906833,None,,,,,16,3,67,0,776.1098378,,776.0948861,776.1098378,777.1094463,777.1094463,777.1094463,777.1094463,777.1094463,778.1094187,778.1094187,778.4129589,,,,,v,0,0.2906833,None,2,1,2025-10-03_13h28.52.734,Motor Sequence,,2025.1.1,60.21655075,2025-10-03 13h28.56.342558 +0530
-50,x,68,0,17,v,0,0.7940799,None,,,,,17,0,68,0,778.4265284,,778.4132339,778.4265284,779.4261211,779.4261211,779.4261211,779.4261211,779.4261211,780.4262175,780.4262175,781.2288113,,,,,v,0,0.7940799,None,2,1,2025-10-03_13h28.52.734,Motor Sequence,,2025.1.1,60.21655075,2025-10-03 13h28.56.342558 +0530
-150,z,69,1,17,x,0,1.2498207,None,,,,,17,1,69,3,781.2433977,,781.2290816,781.2433977,782.2435448,782.2435448,782.2435448,782.2435448,782.2435448,783.2429175,783.2429175,784.4955716,,,,,x,0,1.2498207,None,2,1,2025-10-03_13h28.52.734,Motor Sequence,,2025.1.1,60.21655075,2025-10-03 13h28.56.342558 +0530
50,c,70,2,17,z,0,1.3677415,None,,,,,17,2,70,2,784.5100161,,784.4958203,784.5100161,785.5092437,785.5092437,785.5092437,785.5092437,785.5092437,786.5097923,786.5097923,787.8803194,,,,,z,0,1.3677415,None,2,1,2025-10-03_13h28.52.734,Motor Sequence,,2025.1.1,60.21655075,2025-10-03 13h28.56.342558 +0530
150,v,71,3,17,z,0,0.9279533,None,,,,,17,3,71,1,787.8934303,,787.8806275,787.8934303,788.8932291,788.8932291,788.8932291,788.8932291,788.8932291,789.8934479,789.8934479,790.829818,,,,,z,0,0.9279533,None,2,1,2025-10-03_13h28.52.734,Motor Sequence,,2025.1.1,60.21655075,2025-10-03 13h28.56.342558 +0530
150,v,72,0,18,z,0,1.0001231,None,,,,,18,0,72,1,790.8428206,,790.8300976,790.8428206,791.8430599,791.8430599,791.8430599,791.8430599,791.8430599,792.8427039,792.8427039,793.8444425,,,,,z,0,1.0001231,None,2,1,2025-10-03_13h28.52.734,Motor Sequence,,2025.1.1,60.21655075,2025-10-03 13h28.56.342558 +0530
-50,x,73,1,18,v,0,0.6895816,None,,,,,18,1,73,0,793.8591214,,793.8446604,793.8591214,794.8588458,794.8588458,794.8588458,794.8588458,794.8588458,795.8589975,795.8589975,796.5621216,,,,,v,0,0.6895816,None,2,1,2025-10-03_13h28.52.734,Motor Sequence,,2025.1.1,60.21655075,2025-10-03 13h28.56.342558 +0530
50,c,74,2,18,c,1,0.7692153,None,,,,,18,2,74,2,796.5763645,,796.5623947,796.5763645,797.5762481,797.5762481,797.5762481,797.5762481,797.5762481,798.5757556,798.5757556,799.3479052,,,,,c,1,0.7692153,None,2,1,2025-10-03_13h28.52.734,Motor Sequence,,2025.1.1,60.21655075,2025-10-03 13h28.56.342558 +0530
-150,z,75,3,18,x,0,0.5299626,None,,,,,18,3,75,3,799.3599653,,799.3482853,799.3599653,800.3591878,800.3591878,800.3591878,800.3591878,800.3591878,801.3595962,801.3595962,801.8967891,,,,,x,0,0.5299626,None,2,1,2025-10-03_13h28.52.734,Motor Sequence,,2025.1.1,60.21655075,2025-10-03 13h28.56.342558 +0530
-50,x,76,0,19,v,0,0.5994277,None,,,,,19,0,76,0,801.909706,,801.8970664,801.909706,802.9090956,802.9090956,802.9090956,802.9090956,802.9090956,803.9088594,803.9088594,804.5122695,,,,,v,0,0.5994277,None,2,1,2025-10-03_13h28.52.734,Motor Sequence,,2025.1.1,60.21655075,2025-10-03 13h28.56.342558 +0530
150,v,77,1,19,z,0,1.2402712,None,,,,,19,1,77,1,804.526685,,804.5126447,804.526685,805.5250057,805.5250057,805.5250057,805.5250057,805.5250057,806.5255942,806.5255942,807.7786968,,,,,z,0,1.2402712,None,2,1,2025-10-03_13h28.52.734,Motor Sequence,,2025.1.1,60.21655075,2025-10-03 13h28.56.342558 +0530
50,c,78,2,19,c,1,0.3196943,None,,,,,19,2,78,2,807.792736,,807.7789531,807.792736,808.7926695,808.7926695,808.7926695,808.7926695,808.7926695,809.7923934,809.7923934,810.1138877,,,,,c,1,0.3196943,None,2,1,2025-10-03_13h28.52.734,Motor Sequence,,2025.1.1,60.21655075,2025-10-03 13h28.56.342558 +0530
-150,z,79,3,19,x,0,0.6975274,None,,,,,19,3,79,3,810.1259333,,810.1141664,810.1259333,811.1251081,811.1251081,811.1251081,811.1251081,811.1251081,812.1264688,812.1264688,812.8302698,,,,,x,0,0.6975274,None,2,1,2025-10-03_13h28.52.734,Motor Sequence,,2025.1.1,60.21655075,2025-10-03 13h28.56.342558 +0530
-150,z,80,0,20,x,0,2.9415573,None,,,,,20,0,80,3,812.8420685,,812.8305029,812.8420685,813.8435367,813.8435367,813.8435367,813.8435367,813.8435367,814.8434029,814.8434029,817.7949952,,,,,x,0,2.9415573,None,2,1,2025-10-03_13h28.52.734,Motor Sequence,,2025.1.1,60.21655075,2025-10-03 13h28.56.342558 +0530
50,c,81,1,20,c,1,12.5867454,None,,,,,20,1,81,2,817.8101262,,817.7951956,817.8101262,818.8088555,818.8088555,818.8088555,818.8088555,818.8088555,819.8084744,819.8084744,832.4122564,,,,,c,1,12.5867454,None,2,1,2025-10-03_13h28.52.734,Motor Sequence,,2025.1.1,60.21655075,2025-10-03 13h28.56.342558 +0530
150,v,82,2,20,x,0,0.9769933,None,,,,,20,2,82,1,832.4258767,,832.4125266,832.4258767,833.4255481,833.4255481,833.4255481,833.4255481,833.4255481,834.4255377,834.4255377,835.4119769,,,,,x,0,0.9769933,None,2,1,2025-10-03_13h28.52.734,Motor Sequence,,2025.1.1,60.21655075,2025-10-03 13h28.56.342558 +0530
-50,x,83,3,20,v,0,1.5519321,None,,,,,20,3,83,0,835.4265804,,835.4122354,835.4265804,836.4255894,836.4255894,836.4255894,836.4255894,836.4255894,837.4245787,837.4245787,838.993815,,,,,v,0,1.5519321,None,2,1,2025-10-03_13h28.52.734,Motor Sequence,,2025.1.1,60.21655075,2025-10-03 13h28.56.342558 +0530
50,c,84,0,21,c,1,1.4591361,None,,,,,21,0,84,2,839.0086601,,838.9941636,839.0086601,839.9925182,839.9925182,839.9925182,839.9925182,840.0093146,841.0091619,841.0091619,842.4780244,,,,,c,1,1.4591361,None,2,1,2025-10-03_13h28.52.734,Motor Sequence,,2025.1.1,60.21655075,2025-10-03 13h28.56.342558 +0530
150,v,85,1,21,z,0,2.3727963,None,,,,,21,1,85,1,842.4925031,,842.4783472,842.4925031,843.4923398,843.4923398,843.4923398,843.4923398,843.4923398,844.4933854,844.4933854,846.8764027,,,,,z,0,2.3727963,None,2,1,2025-10-03_13h28.52.734,Motor Sequence,,2025.1.1,60.21655075,2025-10-03 13h28.56.342558 +0530
-150,z,86,2,21,x,0,1.410575,None,,,,,21,2,86,3,846.8917654,,846.8765555,846.8917654,847.876101,847.876101,847.876101,847.876101,847.8933183,848.8761134,848.8761134,850.2952527,,,,,x,0,1.410575,None,2,1,2025-10-03_13h28.52.734,Motor Sequence,,2025.1.1,60.21655075,2025-10-03 13h28.56.342558 +0530
-50,x,87,3,21,v,0,6.9678136,None,,,,,21,3,87,0,850.3095772,,850.2955253,850.3095772,851.309258,851.309258,851.309258,851.309258,851.309258,852.3086059,852.3086059,859.2790983,,,,,v,0,6.9678136,None,2,1,2025-10-03_13h28.52.734,Motor Sequence,,2025.1.1,60.21655075,2025-10-03 13h28.56.342558 +0530
150,v,88,0,22,z,0,1.0172694,None,,,,,22,0,88,1,859.2941926,,859.2794583,859.2941926,860.2925106,860.2925106,860.2925106,860.2925106,860.3086553,861.2927331,861.2927331,862.3111737,,,,,z,0,1.0172694,None,2,1,2025-10-03_13h28.52.734,Motor Sequence,,2025.1.1,60.21655075,2025-10-03 13h28.56.342558 +0530
-150,z,89,1,22,x,0,0.7441871,None,,,,,22,1,89,3,862.3263648,,862.3115053,862.3263648,863.3251841,863.3251841,863.3251841,863.3251841,863.3251841,864.3249479,864.3249479,865.0775054,,,,,x,0,0.7441871,None,2,1,2025-10-03_13h28.52.734,Motor Sequence,,2025.1.1,60.21655075,2025-10-03 13h28.56.342558 +0530
50,c,90,2,22,c,1,1.4102515,None,,,,,22,2,90,2,865.0916635,,865.0778024,865.0916635,866.0916206,866.0916206,866.0916206,866.0916206,866.0916206,867.091495,867.091495,868.5120333,,,,,c,1,1.4102515,None,2,1,2025-10-03_13h28.52.734,Motor Sequence,,2025.1.1,60.21655075,2025-10-03 13h28.56.342558 +0530
-50,x,91,3,22,v,0,0.7227801,None,,,,,22,3,91,0,868.5255953,,868.5123253,868.5255953,869.5242531,869.5242531,869.5242531,869.5242531,869.5242531,870.5246707,870.5246707,871.2622753,,,,,v,0,0.7227801,None,2,1,2025-10-03_13h28.52.734,Motor Sequence,,2025.1.1,60.21655075,2025-10-03 13h28.56.342558 +0530
50,c,92,0,23,c,1,3.5346301,None,,,,,23,0,92,2,871.2750249,,871.2625872,871.2750249,872.2749083,872.2749083,872.2749083,872.2749083,872.2749083,873.2744538,873.2744538,876.8094256,,,,,c,1,3.5346301,None,2,1,2025-10-03_13h28.52.734,Motor Sequence,,2025.1.1,60.21655075,2025-10-03 13h28.56.342558 +0530
-50,x,93,1,23,v,0,0.8531858,None,,,,,23,1,93,0,876.8253051,,876.8096035,876.8253051,877.8091343,877.8091343,877.8091343,877.8091343,877.8258714,878.8087934,878.8087934,879.6785599,,,,,v,0,0.8531858,None,2,1,2025-10-03_13h28.52.734,Motor Sequence,,2025.1.1,60.21655075,2025-10-03 13h28.56.342558 +0530
-150,z,94,2,23,x,0,0.7984903,None,,,,,23,2,94,3,879.6912767,,879.6788512,879.6912767,880.6913397,880.6913397,880.6913397,880.6913397,880.6913397,881.6911299,881.6911299,882.4956908,,,,,x,0,0.7984903,None,2,1,2025-10-03_13h28.52.734,Motor Sequence,,2025.1.1,60.21655075,2025-10-03 13h28.56.342558 +0530
150,v,95,3,23,z,0,0.5462243,None,,,,,23,3,95,1,882.5091257,,882.4960986,882.5091257,883.5078111,883.5078111,883.5078111,883.5078111,883.5078111,884.5093725,884.5093725,885.0618151,,,,,z,0,0.5462243,None,2,1,2025-10-03_13h28.52.734,Motor Sequence,,2025.1.1,60.21655075,2025-10-03 13h28.56.342558 +0530
150,v,96,0,24,z,0,1.1190604,None,,,,,24,0,96,1,885.0748754,,885.0620736,885.0748754,886.0743441,886.0743441,886.0743441,886.0743441,886.0743441,887.0746704,887.0746704,888.1943294,,,,,z,0,1.1190604,None,2,1,2025-10-03_13h28.52.734,Motor Sequence,,2025.1.1,60.21655075,2025-10-03 13h28.56.342558 +0530
-150,z,97,1,24,x,0,1.4707104,None,,,,,24,1,97,3,888.2092281,,888.1947198,888.2092281,889.208449,889.208449,889.208449,889.208449,889.2245416,890.2077284,890.2077284,891.6953903,,,,,x,0,1.4707104,None,2,1,2025-10-03_13h28.52.734,Motor Sequence,,2025.1.1,60.21655075,2025-10-03 13h28.56.342558 +0530
-50,x,98,2,24,v,0,1.1368169,None,,,,,24,2,98,0,891.7091148,,891.6957815,891.7091148,892.7085763,892.7085763,892.7085763,892.7085763,892.7085763,893.7088946,893.7088946,894.8611629,,,,,v,0,1.1368169,None,2,1,2025-10-03_13h28.52.734,Motor Sequence,,2025.1.1,60.21655075,2025-10-03 13h28.56.342558 +0530
50,c,99,3,24,c,1,4.4566495,None,,,,,24,3,99,2,894.8754257,,894.8614132,894.8754257,895.8748458,895.8748458,895.8748458,895.8748458,895.8748458,896.8750839,896.8750839,901.3447634,,,,,c,1,4.4566495,None,2,1,2025-10-03_13h28.52.734,Motor Sequence,,2025.1.1,60.21655075,2025-10-03 13h28.56.342558 +0530
-50,x,100,0,25,v,0,0.8697397,None,,,,,25,0,100,0,901.3585917,,901.3450445,901.3585917,902.3585759,902.3585759,902.3585759,902.3585759,902.3585759,903.3583291,903.3583291,904.2452811,,,,,v,0,0.8697397,None,2,1,2025-10-03_13h28.52.734,Motor Sequence,,2025.1.1,60.21655075,2025-10-03 13h28.56.342558 +0530
50,c,101,1,25,c,1,3.228669,None,,,,,25,1,101,2,904.2581162,,904.2456198,904.2581162,905.2580197,905.2580197,905.2580197,905.2580197,905.2580197,906.2580899,906.2580899,909.4916007,,,,,c,1,3.228669,None,2,1,2025-10-03_13h28.52.734,Motor Sequence,,2025.1.1,60.21655075,2025-10-03 13h28.56.342558 +0530
150,v,102,2,25,z,0,0.4639215,None,,,,,25,2,102,1,909.5084398,,909.4917812,909.5084398,910.4926673,910.4926673,910.4926673,910.4926673,910.5074858,911.4917142,911.4917142,911.9621722,,,,,z,0,0.4639215,None,2,1,2025-10-03_13h28.52.734,Motor Sequence,,2025.1.1,60.21655075,2025-10-03 13h28.56.342558 +0530
-150,z,103,3,25,x,0,0.600181,None,,,,,25,3,103,3,911.9753533,,911.9625784,911.9753533,912.9752804,912.9752804,912.9752804,912.9752804,912.9915506,913.9743414,913.9743414,914.5808599,,,,,x,0,0.600181,None,2,1,2025-10-03_13h28.52.734,Motor Sequence,,2025.1.1,60.21655075,2025-10-03 13h28.56.342558 +0530
150,v,104,0,26,z,0,0.7699683,None,,,,,26,0,104,1,914.5911748,,914.5811921,914.5911748,915.5917188,915.5917188,915.5917188,915.5917188,915.5917188,916.5910193,916.5910193,917.36137,,,,,z,0,0.7699683,None,2,1,2025-10-03_13h28.52.734,Motor Sequence,,2025.1.1,60.21655075,2025-10-03 13h28.56.342558 +0530
-50,x,105,1,26,v,0,1.6700146,None,,,,,26,1,105,0,917.3744284,,917.3616921,917.3744284,918.3742176,918.3742176,918.3742176,918.3742176,918.3742176,919.3739949,919.3739949,921.0607182,,,,,v,0,1.6700146,None,2,1,2025-10-03_13h28.52.734,Motor Sequence,,2025.1.1,60.21655075,2025-10-03 13h28.56.342558 +0530
-150,z,106,2,26,x,0,0.6351341,None,,,,,26,2,106,3,921.0745979,,921.0609694,921.0745979,922.0581397,922.0581397,922.0581397,922.0581397,922.0744577,923.0745244,923.0745244,923.7128033,,,,,x,0,0.6351341,None,2,1,2025-10-03_13h28.52.734,Motor Sequence,,2025.1.1,60.21655075,2025-10-03 13h28.56.342558 +0530
50,c,107,3,26,c,1,0.6446245,None,,,,,26,3,107,2,923.7248345,,923.7130832,923.7248345,924.7244791,924.7244791,924.7244791,924.7244791,924.7244791,925.7245277,925.7245277,926.376725,,,,,c,1,0.6446245,None,2,1,2025-10-03_13h28.52.734,Motor Sequence,,2025.1.1,60.21655075,2025-10-03 13h28.56.342558 +0530
-50,x,108,0,27,v,0,0.6532792,None,,,,,27,0,108,0,926.3915736,,926.3769686,926.3915736,927.3925119,927.3925119,927.3925119,927.3925119,927.3925119,928.3904618,928.3904618,929.0468238,,,,,v,0,0.6532792,None,2,1,2025-10-03_13h28.52.734,Motor Sequence,,2025.1.1,60.21655075,2025-10-03 13h28.56.342558 +0530
-150,z,109,1,27,x,0,0.7563326,None,,,,,27,1,109,3,929.0582499,,929.0472071,929.0582499,930.0581594,930.0581594,930.0581594,930.0581594,930.0581594,931.0593129,931.0593129,931.8273963,,,,,x,0,0.7563326,None,2,1,2025-10-03_13h28.52.734,Motor Sequence,,2025.1.1,60.21655075,2025-10-03 13h28.56.342558 +0530
50,c,110,2,27,c,1,0.6449452,None,,,,,27,2,110,2,931.8413974,,931.8276517,931.8413974,932.8413876,932.8413876,932.8413876,932.8413876,932.8413876,933.8407403,933.8407403,934.4929002,,,,,c,1,0.6449452,None,2,1,2025-10-03_13h28.52.734,Motor Sequence,,2025.1.1,60.21655075,2025-10-03 13h28.56.342558 +0530
150,v,111,3,27,z,0,0.3598676,None,,,,,27,3,111,1,934.5073999,,934.4931512,934.5073999,935.5076226,935.5076226,935.5076226,935.5076226,935.5076226,936.5074167,936.5074167,936.8752376,,,,,z,0,0.3598676,None,2,1,2025-10-03_13h28.52.734,Motor Sequence,,2025.1.1,60.21655075,2025-10-03 13h28.56.342558 +0530
-150,z,112,0,28,x,0,1.2058915,None,,,,,28,0,112,3,936.8916748,,936.8754288,936.8916748,937.8747041,937.8747041,937.8747041,937.8747041,937.8908184,938.8906898,938.8906898,940.1098353,,,,,x,0,1.2058915,None,2,1,2025-10-03_13h28.52.734,Motor Sequence,,2025.1.1,60.21655075,2025-10-03 13h28.56.342558 +0530
50,c,113,1,28,c,1,2.7013523,None,,,,,28,1,113,2,940.1244267,,940.1100782,940.1244267,941.1238679,941.1238679,941.1238679,941.1238679,941.1238679,942.1239518,942.1239518,944.82729,,,,,c,1,2.7013523,None,2,1,2025-10-03_13h28.52.734,Motor Sequence,,2025.1.1,60.21655075,2025-10-03 13h28.56.342558 +0530
150,v,114,2,28,z,0,0.7197186,None,,,,,28,2,114,1,944.8411223,,944.8275301,944.8411223,945.8403368,945.8403368,945.8403368,945.8403368,945.8403368,946.8410256,946.8410256,947.5616233,,,,,z,0,0.7197186,None,2,1,2025-10-03_13h28.52.734,Motor Sequence,,2025.1.1,60.21655075,2025-10-03 13h28.56.342558 +0530
-50,x,115,3,28,v,0,1.0037296,None,,,,,28,3,115,0,947.5747021,,947.5619207,947.5747021,948.5743483,948.5743483,948.5743483,948.5743483,948.5743483,949.5751568,949.5751568,950.5950352,,,,,v,0,1.0037296,None,2,1,2025-10-03_13h28.52.734,Motor Sequence,,2025.1.1,60.21655075,2025-10-03 13h28.56.342558 +0530
50,c,116,0,29,c,1,1.8385818,None,,,,,29,0,116,2,950.6082134,,950.5953599,950.6082134,951.6086521,951.6086521,951.6086521,951.6086521,951.6086521,952.6082232,952.6082232,954.4610455,,,,,c,1,1.8385818,None,2,1,2025-10-03_13h28.52.734,Motor Sequence,,2025.1.1,60.21655075,2025-10-03 13h28.56.342558 +0530
-50,x,117,1,29,v,0,1.450031,None,,,,,29,1,117,0,954.4745354,,954.4613317,954.4745354,955.4753366,955.4753366,955.4753366,955.4753366,955.4753366,956.4741549,956.4741549,957.9288691,,,,,v,0,1.450031,None,2,1,2025-10-03_13h28.52.734,Motor Sequence,,2025.1.1,60.21655075,2025-10-03 13h28.56.342558 +0530
150,v,118,2,29,z,0,0.9098227,None,,,,,29,2,118,1,957.9409589,,957.9292485,957.9409589,958.9408055,958.9408055,958.9408055,958.9408055,958.9408055,959.9415567,959.9415567,960.8598181,,,,,z,0,0.9098227,None,2,1,2025-10-03_13h28.52.734,Motor Sequence,,2025.1.1,60.21655075,2025-10-03 13h28.56.342558 +0530
-150,z,119,3,29,x,0,0.885288,None,,,,,29,3,119,3,960.8750485,,960.8600946,960.8750485,961.8749683,961.8749683,961.8749683,961.8749683,961.8749683,962.8747159,962.8747159,963.7623548,,,,,x,0,0.885288,None,2,1,2025-10-03_13h28.52.734,Motor Sequence,,2025.1.1,60.21655075,2025-10-03 13h28.56.342558 +0530
50,c,120,0,30,c,1,3.4422882,None,,,,,30,0,120,2,963.7752667,,963.7626903,963.7752667,964.7748624,964.7748624,964.7748624,964.7748624,964.7748624,965.774465,965.774465,969.2242674,,,,,c,1,3.4422882,None,2,1,2025-10-03_13h28.52.734,Motor Sequence,,2025.1.1,60.21655075,2025-10-03 13h28.56.342558 +0530
-150,z,121,1,30,x,0,0.6339085,None,,,,,30,1,121,3,969.2398025,,969.2244733,969.2398025,970.2243591,970.2243591,970.2243591,970.2243591,970.2406057,971.222703,971.222703,971.8589578,,,,,x,0,0.6339085,None,2,1,2025-10-03_13h28.52.734,Motor Sequence,,2025.1.1,60.21655075,2025-10-03 13h28.56.342558 +0530
150,v,122,2,30,z,0,2.66331,None,,,,,30,2,122,1,971.8753032,,971.8591183,971.8753032,972.8580857,972.8580857,972.8580857,972.8580857,972.8733208,973.8742245,973.8742245,976.543116,,,,,z,0,2.66331,None,2,1,2025-10-03_13h28.52.734,Motor Sequence,,2025.1.1,60.21655075,2025-10-03 13h28.56.342558 +0530
-50,x,123,3,30,v,0,1.0062664,None,,,,,30,3,123,0,976.5571121,,976.5434699,976.5571121,977.557172,977.557172,977.557172,977.557172,977.557172,978.5567458,978.5567458,979.577497,,,,,v,0,1.0062664,None,2,1,2025-10-03_13h28.52.734,Motor Sequence,,2025.1.1,60.21655075,2025-10-03 13h28.56.342558 +0530
-50,x,124,0,31,v,0,1.0104747,None,,,,,31,0,124,0,979.5903795,,979.5777604,979.5903795,980.5896687,980.5896687,980.5896687,980.5896687,980.5896687,981.5909362,981.5909362,982.6093642,,,,,v,0,1.0104747,None,2,1,2025-10-03_13h28.52.734,Motor Sequence,,2025.1.1,60.21655075,2025-10-03 13h28.56.342558 +0530
150,v,125,1,31,z,0,1.0013151,None,,,,,31,1,125,1,982.6233574,,982.6095817,982.6233574,983.6075892,983.6075892,983.6075892,983.6075892,983.624024,984.6236126,984.6236126,985.6273623,,,,,z,0,1.0013151,None,2,1,2025-10-03_13h28.52.734,Motor Sequence,,2025.1.1,60.21655075,2025-10-03 13h28.56.342558 +0530
50,c,126,2,31,c,1,3.1580586,None,,,,,31,2,126,2,985.6404585,,985.627586,985.6404585,986.6401025,986.6401025,986.6401025,986.6401025,986.6401025,987.6400032,987.6400032,990.8076924,,,,,c,1,3.1580586,None,2,1,2025-10-03_13h28.52.734,Motor Sequence,,2025.1.1,60.21655075,2025-10-03 13h28.56.342558 +0530
-150,z,127,3,31,x,0,0.6824434,None,,,,,31,3,127,3,990.823327,,990.8078465,990.823327,991.8072081,991.8072081,991.8072081,991.8072081,991.8247517,992.8071011,992.8071011,993.4961639,,,,,x,0,0.6824434,None,2,1,2025-10-03_13h28.52.734,Motor Sequence,,2025.1.1,60.21655075,2025-10-03 13h28.56.342558 +0530
50,c,128,0,32,c,1,3.3604591,None,,,,,32,0,128,2,993.5072918,,993.4965398,993.5072918,994.5063629,994.5063629,994.5063629,994.5063629,994.5063629,995.5070098,995.5070098,998.8770321,,,,,c,1,3.3604591,None,2,1,2025-10-03_13h28.52.734,Motor Sequence,,2025.1.1,60.21655075,2025-10-03 13h28.56.342558 +0530
150,v,129,1,32,z,0,1.6460097,None,,,,,32,1,129,1,998.8907414,,998.8772912,998.8907414,999.8914478,999.8914478,999.8914478,999.8914478,999.8914478,1000.89034,1000.89034,1002.541819,,,,,z,0,1.6460097,None,2,1,2025-10-03_13h28.52.734,Motor Sequence,,2025.1.1,60.21655075,2025-10-03 13h28.56.342558 +0530
-50,x,130,2,32,v,0,1.0392822,None,,,,,32,2,130,0,1002.556855,,1002.542018,1002.556855,1003.556721,1003.556721,1003.556721,1003.556721,1003.556721,1004.540516,1004.540516,1005.59459,,,,,v,0,1.0392822,None,2,1,2025-10-03_13h28.52.734,Motor Sequence,,2025.1.1,60.21655075,2025-10-03 13h28.56.342558 +0530
