thisN,thisTrialN,thisRepN,mouse.x,mouse.y,mouse.leftButton,mouse.midButton,mouse.rightButton,mouse.time,mouse.clicked_name,trials.thisRepN,trials.thisTrialN,trials.thisN,trials.thisIndex,thisRow.t,notes,num_distr,trial.started,fixation.started,target.started,mouse.started,trial.stopped,trials.mouse.x,trials.mouse.y,trials.mouse.leftButton,trials.mouse.midButton,trials.mouse.rightButton,trials.mouse.time,trials.mouse.clicked_name,participant,session,date,expName,expVersion,psychopyVersion,frameRate,expStart,
0,0,0,[np.float64(0.4046296296296296)],[np.float64(0.07685185185185185)],[1],[0],[0],[1.551578599959612],['target'],0,0,0,0,0.029198799980804324,,10,0.021067399997264147,0.029198799980804324,0.029198799980804324,0.021086299791932106,1.5727250000927597,[np.float64(0.4046296296296296)],[np.float64(0.07685185185185185)],[1],[0],[0],[1.551578599959612],['target'],2,001,2025-09-30_15h43.14.632,Visual Search,,2025.1.1,59.810436764785926,2025-09-30 15h43.53.843031 +0530,
1,0,1,[np.float64(0.06296296296296296)],[np.float64(-0.12222222222222222)],[1],[0],[0],[1.2176724998280406],['target'],1,0,1,0,1.5948994001373649,,10,1.589008599985391,1.5948994001373649,1.5948994001373649,0.016129399882629514,2.806760200066492,[np.float64(0.06296296296296296)],[np.float64(-0.12222222222222222)],[1],[0],[0],[1.2176724998280406],['target'],2,001,2025-09-30_15h43.14.632,Visual Search,,2025.1.1,59.810436764785926,2025-09-30 15h43.53.843031 +0530,
2,0,2,[np.float64(-0.3675925925925926)],[np.float64(-0.12222222222222222)],[1],[0],[0],[1.2920351000502706],['target'],2,0,2,0,2.819360400084406,,5,2.814570000162348,2.819360400084406,2.819360400084406,0.007643799996003509,4.106712199980393,[np.float64(-0.3675925925925926)],[np.float64(-0.12222222222222222)],[1],[0],[0],[1.2920351000502706],['target'],2,001,2025-09-30_15h43.14.632,Visual Search,,2025.1.1,59.810436764785926,2025-09-30 15h43.53.843031 +0530,
3,0,3,[np.float64(-0.2601851851851852)],[np.float64(0.2064814814814815)],[1],[0],[0],[1.1531642000190914],['target'],3,0,3,0,4.128653299994767,,5,4.121730400016531,4.128653299994767,4.128653299994767,0.01486009988002479,5.274997300002724,[np.float64(-0.2601851851851852)],[np.float64(0.2064814814814815)],[1],[0],[0],[1.1531642000190914],['target'],2,001,2025-09-30_15h43.14.632,Visual Search,,2025.1.1,59.810436764785926,2025-09-30 15h43.53.843031 +0530,
4,0,4,[np.float64(0.3333333333333333)],[np.float64(-0.1925925925925926)],[1],[0],[0],[1.4415325000882149],['target'],4,0,4,0,5.288656000047922,,5,5.284554100129753,5.288656000047922,5.288656000047922,0.00937239988707006,6.726206500083208,[np.float64(0.3333333333333333)],[np.float64(-0.1925925925925926)],[1],[0],[0],[1.4415325000882149],['target'],2,001,2025-09-30_15h43.14.632,Visual Search,,2025.1.1,59.810436764785926,2025-09-30 15h43.53.843031 +0530,
5,0,5,[np.float64(0.07777777777777778)],[np.float64(0.48148148148148145)],[1],[0],[0],[1.3717791000381112],['target'],5,0,5,0,6.739671600051224,,5,6.7356235999614,6.739671600051224,6.739671600051224,0.00921679986640811,8.107491800095886,[np.float64(0.07777777777777778)],[np.float64(0.48148148148148145)],[1],[0],[0],[1.3717791000381112],['target'],2,001,2025-09-30_15h43.14.632,Visual Search,,2025.1.1,59.810436764785926,2025-09-30 15h43.53.843031 +0530,
6,0,6,[np.float64(-0.4740740740740741)],[np.float64(0.17685185185185184)],[1],[0],[0],[1.1584028000943363],['target'],6,0,6,0,8.121807100018486,,5,8.117544200038537,8.121807100018486,8.121807100018486,0.009906799998134375,9.276053300127387,[np.float64(-0.4740740740740741)],[np.float64(0.17685185185185184)],[1],[0],[0],[1.1584028000943363],['target'],2,001,2025-09-30_15h43.14.632,Visual Search,,2025.1.1,59.810436764785926,2025-09-30 15h43.53.843031 +0530,
7,0,7,[np.float64(0.18611111111111112)],[np.float64(0.05092592592592592)],[1],[0],[0],[2.1948007000610232],['target'],7,0,7,0,9.29738870006986,,10,9.291507299989462,9.29738870006986,9.29738870006986,0.015256399987265468,11.48640020005405,[np.float64(0.18611111111111112)],[np.float64(0.05092592592592592)],[1],[0],[0],[2.1948007000610232],['target'],2,001,2025-09-30_15h43.14.632,Visual Search,,2025.1.1,59.810436764785926,2025-09-30 15h43.53.843031 +0530,
8,0,8,[np.float64(0.4648148148148148)],[np.float64(0.014814814814814815)],[1],[0],[0],[1.7908632999751717],['target'],8,0,8,0,11.507079500006512,,10,11.501268899999559,11.507079500006512,11.507079500006512,0.014663599897176027,13.292230900144204,[np.float64(0.4648148148148148)],[np.float64(0.014814814814814815)],[1],[0],[0],[1.7908632999751717],['target'],2,001,2025-09-30_15h43.14.632,Visual Search,,2025.1.1,59.810436764785926,2025-09-30 15h43.53.843031 +0530,
9,0,9,[np.float64(0.24259259259259258)],[np.float64(-0.4777777777777778)],[1],[0],[0],[2.078931199852377],['target'],9,0,9,0,13.312753800069913,,10,13.306873900117353,13.312753800069913,13.312753800069913,0.01444170018658042,15.38585660001263,[np.float64(0.24259259259259258)],[np.float64(-0.4777777777777778)],[1],[0],[0],[2.078931199852377],['target'],2,001,2025-09-30_15h43.14.632,Visual Search,,2025.1.1,59.810436764785926,2025-09-30 15h43.53.843031 +0530,
10,0,10,[np.float64(-0.46944444444444444)],[np.float64(0.11018518518518519)],[1],[0],[0],[1.4745338999200612],['target'],10,0,10,0,15.405679699964821,,10,15.399566000094637,15.405679699964821,15.405679699964821,0.013627400156110525,16.87419719994068,[np.float64(-0.46944444444444444)],[np.float64(0.11018518518518519)],[1],[0],[0],[1.4745338999200612],['target'],2,001,2025-09-30_15h43.14.632,Visual Search,,2025.1.1,59.810436764785926,2025-09-30 15h43.53.843031 +0530,
11,0,11,[np.float64(-0.387037037037037)],[np.float64(-0.21666666666666667)],[1],[0],[0],[1.3961680999491364],['target'],11,0,11,0,16.89735949994065,,10,16.89145820005797,16.89735949994065,16.89735949994065,0.017108799889683723,18.287735200021416,[np.float64(-0.387037037037037)],[np.float64(-0.21666666666666667)],[1],[0],[0],[1.3961680999491364],['target'],2,001,2025-09-30_15h43.14.632,Visual Search,,2025.1.1,59.810436764785926,2025-09-30 15h43.53.843031 +0530,
12,0,12,[np.float64(0.2953703703703704)],[np.float64(-0.2657407407407407)],[1],[0],[0],[1.398379199905321],['target'],12,0,12,0,18.312847200082615,,10,18.30598539998755,18.312847200082615,18.312847200082615,0.018034999957308173,19.704431500053033,[np.float64(0.2953703703703704)],[np.float64(-0.2657407407407407)],[1],[0],[0],[1.398379199905321],['target'],2,001,2025-09-30_15h43.14.632,Visual Search,,2025.1.1,59.810436764785926,2025-09-30 15h43.53.843031 +0530,
13,0,13,[np.float64(0.31574074074074077)],[np.float64(-0.2712962962962963)],[1],[0],[0],[1.3530188000295311],['target'],13,0,13,0,19.725244200089946,,10,19.719026900129393,19.725244200089946,19.725244200089946,0.01445279992185533,21.072143000084907,[np.float64(0.31574074074074077)],[np.float64(-0.2712962962962963)],[1],[0],[0],[1.3530188000295311],['target'],2,001,2025-09-30_15h43.14.632,Visual Search,,2025.1.1,59.810436764785926,2025-09-30 15h43.53.843031 +0530,
14,0,14,[np.float64(-0.4324074074074074)],[np.float64(-0.31574074074074077)],[1],[0],[0],[1.4039348000660539],['target'],14,0,14,0,21.087438400136307,,5,21.083120200084522,21.087438400136307,21.087438400136307,0.010771699948236346,22.487238200148568,[np.float64(-0.4324074074074074)],[np.float64(-0.31574074074074077)],[1],[0],[0],[1.4039348000660539],['target'],2,001,2025-09-30_15h43.14.632,Visual Search,,2025.1.1,59.810436764785926,2025-09-30 15h43.53.843031 +0530,
15,0,15,[np.float64(-0.337037037037037)],[np.float64(0.2814814814814815)],[1],[0],[0],[1.3620730000548065],['target'],15,0,15,0,22.501858599949628,,5,22.49682560004294,22.501858599949628,22.501858599949628,0.009367900202050805,23.858984099933878,[np.float64(-0.337037037037037)],[np.float64(0.2814814814814815)],[1],[0],[0],[1.3620730000548065],['target'],2,001,2025-09-30_15h43.14.632,Visual Search,,2025.1.1,59.810436764785926,2025-09-30 15h43.53.843031 +0530,
16,0,16,[np.float64(-0.30925925925925923)],[np.float64(-0.38333333333333336)],[1],[0],[0],[1.7162230000831187],['target'],16,0,16,0,23.880860000150278,,10,23.87444490008056,23.880860000150278,23.880860000150278,0.01533340010792017,25.59078860003501,[np.float64(-0.30925925925925923)],[np.float64(-0.38333333333333336)],[1],[0],[0],[1.7162230000831187],['target'],2,001,2025-09-30_15h43.14.632,Visual Search,,2025.1.1,59.810436764785926,2025-09-30 15h43.53.843031 +0530,
17,0,17,[np.float64(-0.30648148148148147)],[np.float64(-0.39351851851851855)],[1],[0],[0],[1.486490299925208],['target'],17,0,17,0,25.60552510013804,,5,25.601114799967036,25.60552510013804,25.60552510013804,0.01008990011177957,27.08769980003126,[np.float64(-0.30648148148148147)],[np.float64(-0.39351851851851855)],[1],[0],[0],[1.486490299925208],['target'],2,001,2025-09-30_15h43.14.632,Visual Search,,2025.1.1,59.810436764785926,2025-09-30 15h43.53.843031 +0530,
18,0,18,[np.float64(0.1824074074074074)],[np.float64(-0.2)],[1],[0],[0],[1.2580136999022216],['target'],18,0,18,0,27.101637300103903,,5,27.09605970000848,27.101637300103903,27.101637300103903,0.00822610012255609,28.354240600019693,[np.float64(0.1824074074074074)],[np.float64(-0.2)],[1],[0],[0],[1.2580136999022216],['target'],2,001,2025-09-30_15h43.14.632,Visual Search,,2025.1.1,59.810436764785926,2025-09-30 15h43.53.843031 +0530,
19,0,19,[np.float64(-0.48055555555555557)],[np.float64(0.06388888888888888)],[1],[0],[0],[1.1588837001472712],['target'],19,0,19,0,28.369731000158936,,5,28.36543729994446,28.369731000158936,28.369731000158936,0.010930699994787574,29.52445419994183,[np.float64(-0.48055555555555557)],[np.float64(0.06388888888888888)],[1],[0],[0],[1.1588837001472712],['target'],2,001,2025-09-30_15h43.14.632,Visual Search,,2025.1.1,59.810436764785926,2025-09-30 15h43.53.843031 +0530,
20,0,20,[np.float64(-0.4398148148148148)],[np.float64(0.4787037037037037)],[1],[0],[0],[1.5711999998893589],['target'],20,0,20,0,29.539906200021505,,5,29.535352800041437,29.539906200021505,29.539906200021505,0.010685999877750874,31.106674500042573,[np.float64(-0.4398148148148148)],[np.float64(0.4787037037037037)],[1],[0],[0],[1.5711999998893589],['target'],2,001,2025-09-30_15h43.14.632,Visual Search,,2025.1.1,59.810436764785926,2025-09-30 15h43.53.843031 +0530,
21,0,21,[np.float64(0.46296296296296297)],[np.float64(0.45185185185185184)],[1],[0],[0],[1.2239890999626368],['target'],21,0,21,0,31.12242710008286,,5,31.118135900003836,31.12242710008286,31.12242710008286,0.011262200074270368,32.34224010002799,[np.float64(0.46296296296296297)],[np.float64(0.45185185185185184)],[1],[0],[0],[1.2239890999626368],['target'],2,001,2025-09-30_15h43.14.632,Visual Search,,2025.1.1,59.810436764785926,2025-09-30 15h43.53.843031 +0530,
22,0,22,[np.float64(-0.475)],[np.float64(-0.010185185185185186)],[1],[0],[0],[1.3840256999246776],['target'],22,0,22,0,32.35620500007644,,5,32.35180380009115,32.35620500007644,32.35620500007644,0.009373900014907122,33.73591880011372,[np.float64(-0.475)],[np.float64(-0.010185185185185186)],[1],[0],[0],[1.3840256999246776],['target'],2,001,2025-09-30_15h43.14.632,Visual Search,,2025.1.1,59.810436764785926,2025-09-30 15h43.53.843031 +0530,
23,0,23,[np.float64(0.062037037037037036)],[np.float64(-0.24074074074074073)],[1],[0],[0],[1.2244964998681098],['target'],23,0,23,0,33.75175249995664,,5,33.74662680015899,33.75175249995664,33.75175249995664,0.010568299796432257,34.971179800108075,[np.float64(0.062037037037037036)],[np.float64(-0.24074074074074073)],[1],[0],[0],[1.2244964998681098],['target'],2,001,2025-09-30_15h43.14.632,Visual Search,,2025.1.1,59.810436764785926,2025-09-30 15h43.53.843031 +0530,
24,0,24,[np.float64(0.1574074074074074)],[np.float64(-0.3685185185185185)],[1],[0],[0],[1.3326586000621319],['target'],24,0,24,0,34.99517680006102,,10,34.98879440012388,34.99517680006102,34.99517680006102,0.017529899952933192,36.32152769993991,[np.float64(0.1574074074074074)],[np.float64(-0.3685185185185185)],[1],[0],[0],[1.3326586000621319],['target'],2,001,2025-09-30_15h43.14.632,Visual Search,,2025.1.1,59.810436764785926,2025-09-30 15h43.53.843031 +0530,
25,0,25,[np.float64(-0.35185185185185186)],[np.float64(-0.026851851851851852)],[1],[0],[0],[1.2518076999112964],['target'],25,0,25,0,36.34408630011603,,10,36.33804069994949,36.34408630011603,36.34408630011603,0.016357700107619166,37.58993010013364,[np.float64(-0.35185185185185186)],[np.float64(-0.026851851851851852)],[1],[0],[0],[1.2518076999112964],['target'],2,001,2025-09-30_15h43.14.632,Visual Search,,2025.1.1,59.810436764785926,2025-09-30 15h43.53.843031 +0530,
26,0,26,[np.float64(-0.13796296296296295)],[np.float64(-0.1685185185185185)],[1],[0],[0],[1.1831072999630123],['target'],26,0,26,0,37.610924400156364,,10,37.6046005000826,37.610924400156364,37.610924400156364,0.014515100046992302,38.78793390002102,[np.float64(-0.13796296296296295)],[np.float64(-0.1685185185185185)],[1],[0],[0],[1.1831072999630123],['target'],2,001,2025-09-30_15h43.14.632,Visual Search,,2025.1.1,59.810436764785926,2025-09-30 15h43.53.843031 +0530,
27,0,27,[np.float64(0.3037037037037037)],[np.float64(0.3768518518518518)],[1],[0],[0],[1.1560263999272138],['target'],27,0,27,0,38.806561100063846,,5,38.80216350010596,38.806561100063846,38.806561100063846,0.01389149995520711,39.958722200011835,[np.float64(0.3037037037037037)],[np.float64(0.3768518518518518)],[1],[0],[0],[1.1560263999272138],['target'],2,001,2025-09-30_15h43.14.632,Visual Search,,2025.1.1,59.810436764785926,2025-09-30 15h43.53.843031 +0530,
28,0,28,[np.float64(-0.4564814814814815)],[np.float64(0.41388888888888886)],[1],[0],[0],[1.5208286999259144],['target'],28,0,28,0,39.97230310016312,,5,39.967739700106904,39.97230310016312,39.97230310016312,0.00875370018184185,41.48864830005914,[np.float64(-0.4564814814814815)],[np.float64(0.41388888888888886)],[1],[0],[0],[1.5208286999259144],['target'],2,001,2025-09-30_15h43.14.632,Visual Search,,2025.1.1,59.810436764785926,2025-09-30 15h43.53.843031 +0530,
29,0,29,[np.float64(0.3472222222222222)],[np.float64(0.31666666666666665)],[1],[0],[0],[1.2386581001337618],['target'],29,0,29,0,41.50288649997674,,5,41.49751739995554,41.50288649997674,41.50288649997674,0.008735900046303868,42.73628140008077,[np.float64(0.3472222222222222)],[np.float64(0.31666666666666665)],[1],[0],[0],[1.2386581001337618],['target'],2,001,2025-09-30_15h43.14.632,Visual Search,,2025.1.1,59.810436764785926,2025-09-30 15h43.53.843031 +0530,
30,0,30,[np.float64(0.39537037037037037)],[np.float64(-0.4759259259259259)],[1],[0],[0],[2.9178980998694897],['target'],30,0,30,0,42.757073800079525,,10,42.75101420003921,42.757073800079525,42.757073800079525,0.014551900094375014,45.668965300079435,[np.float64(0.39537037037037037)],[np.float64(-0.4759259259259259)],[1],[0],[0],[2.9178980998694897],['target'],2,001,2025-09-30_15h43.14.632,Visual Search,,2025.1.1,59.810436764785926,2025-09-30 15h43.53.843031 +0530,
31,0,31,[np.float64(0.03888888888888889)],[np.float64(0.26944444444444443)],[1],[0],[0],[1.4760606000199914],['target'],31,0,31,0,45.68477990012616,,5,45.67685619997792,45.68477990012616,45.68477990012616,0.007811499992385507,47.15301600005478,[np.float64(0.03888888888888889)],[np.float64(0.26944444444444443)],[1],[0],[0],[1.4760606000199914],['target'],2,001,2025-09-30_15h43.14.632,Visual Search,,2025.1.1,59.810436764785926,2025-09-30 15h43.53.843031 +0530,
32,0,32,[np.float64(0.31666666666666665)],[np.float64(-0.3398148148148148)],[1],[0],[0],[1.5562170001212507],['target'],32,0,32,0,47.175157099962234,,10,47.16922120004892,47.175157099962234,47.175157099962234,0.016055400017648935,48.725538100115955,[np.float64(0.31666666666666665)],[np.float64(-0.3398148148148148)],[1],[0],[0],[1.5562170001212507],['target'],2,001,2025-09-30_15h43.14.632,Visual Search,,2025.1.1,59.810436764785926,2025-09-30 15h43.53.843031 +0530,
33,0,33,[np.float64(-0.2361111111111111)],[np.float64(0.18796296296296297)],[1],[0],[0],[1.3206299000885338],['target'],33,0,33,0,48.74099520011805,,5,48.73650580015965,48.74099520011805,48.74099520011805,0.010772000066936016,50.05723190004937,[np.float64(-0.2361111111111111)],[np.float64(0.18796296296296297)],[1],[0],[0],[1.3206299000885338],['target'],2,001,2025-09-30_15h43.14.632,Visual Search,,2025.1.1,59.810436764785926,2025-09-30 15h43.53.843031 +0530,
34,0,34,[np.float64(0.06666666666666667)],[np.float64(0.10833333333333334)],[1],[0],[0],[1.2138423998840153],['target'],34,0,34,0,50.078950100112706,,10,50.073172700125724,50.078950100112706,50.078950100112706,0.015748700127005577,51.287060800008476,[np.float64(0.06666666666666667)],[np.float64(0.10833333333333334)],[1],[0],[0],[1.2138423998840153],['target'],2,001,2025-09-30_15h43.14.632,Visual Search,,2025.1.1,59.810436764785926,2025-09-30 15h43.53.843031 +0530,
35,0,35,[np.float64(-0.4444444444444444)],[np.float64(0.25833333333333336)],[1],[0],[0],[1.3175409999676049],['target'],35,0,35,0,51.30899990000762,,10,51.30291450000368,51.30899990000762,51.30899990000762,0.01577350008301437,52.62052890006453,[np.float64(-0.4444444444444444)],[np.float64(0.25833333333333336)],[1],[0],[0],[1.3175409999676049],['target'],2,001,2025-09-30_15h43.14.632,Visual Search,,2025.1.1,59.810436764785926,2025-09-30 15h43.53.843031 +0530,
36,0,36,[np.float64(0.08055555555555556)],[np.float64(-0.0962962962962963)],[1],[0],[0],[1.3587523000314832],['target'],36,0,36,0,52.634772000135854,,5,52.62963899993338,52.634772000135854,52.634772000135854,0.008949300041422248,53.98847540002316,[np.float64(0.08055555555555556)],[np.float64(-0.0962962962962963)],[1],[0],[0],[1.3587523000314832],['target'],2,001,2025-09-30_15h43.14.632,Visual Search,,2025.1.1,59.810436764785926,2025-09-30 15h43.53.843031 +0530,
37,0,37,[np.float64(0.10092592592592593)],[np.float64(0.08148148148148149)],[1],[0],[0],[0.9929824999999255],['target'],37,0,37,0,54.002652399940416,,5,53.99828050006181,54.002652399940416,54.002652399940416,0.009661499876528978,54.991382900159806,[np.float64(0.10092592592592593)],[np.float64(0.08148148148148149)],[1],[0],[0],[0.9929824999999255],['target'],2,001,2025-09-30_15h43.14.632,Visual Search,,2025.1.1,59.810436764785926,2025-09-30 15h43.53.843031 +0530,
38,0,38,[np.float64(-0.2037037037037037)],[np.float64(-0.06111111111111111)],[1],[0],[0],[1.3306371001526713],['target'],38,0,38,0,55.013018700061366,,10,55.0070058000274,55.013018700061366,55.013018700061366,0.015444600023329258,56.33773010014556,[np.float64(-0.2037037037037037)],[np.float64(-0.06111111111111111)],[1],[0],[0],[1.3306371001526713],['target'],2,001,2025-09-30_15h43.14.632,Visual Search,,2025.1.1,59.810436764785926,2025-09-30 15h43.53.843031 +0530,
39,0,39,[np.float64(0.22685185185185186)],[np.float64(-0.17222222222222222)],[1],[0],[0],[1.183453100034967],['target'],39,0,39,0,56.358755900058895,,10,56.35268729995005,56.358755900058895,56.358755900058895,0.014796199975535274,57.53623030008748,[np.float64(0.22685185185185186)],[np.float64(-0.17222222222222222)],[1],[0],[0],[1.183453100034967],['target'],2,001,2025-09-30_15h43.14.632,Visual Search,,2025.1.1,59.810436764785926,2025-09-30 15h43.53.843031 +0530,
40,0,40,[np.float64(-0.1361111111111111)],[np.float64(-0.3055555555555556)],[1],[0],[0],[1.3406959001440555],['target'],40,0,40,0,57.5569021999836,,10,57.550946900155395,57.5569021999836,57.5569021999836,0.0145388999953866,58.891739800106734,[np.float64(-0.1361111111111111)],[np.float64(-0.3055555555555556)],[1],[0],[0],[1.3406959001440555],['target'],2,001,2025-09-30_15h43.14.632,Visual Search,,2025.1.1,59.810436764785926,2025-09-30 15h43.53.843031 +0530,
41,0,41,[np.float64(-0.33055555555555555)],[np.float64(-0.12129629629629629)],[1],[0],[0],[1.133184399921447],['target'],41,0,41,0,58.91318819997832,,10,58.907275800127536,58.91318819997832,58.91318819997832,0.01535069989040494,60.04056140012108,[np.float64(-0.33055555555555555)],[np.float64(-0.12129629629629629)],[1],[0],[0],[1.133184399921447],['target'],2,001,2025-09-30_15h43.14.632,Visual Search,,2025.1.1,59.810436764785926,2025-09-30 15h43.53.843031 +0530,
42,0,42,[np.float64(0.09074074074074075)],[np.float64(-0.053703703703703705)],[1],[0],[0],[1.2632828999776393],['target'],42,0,42,0,60.06205480010249,,10,60.055789300007746,60.06205480010249,60.06205480010249,0.015026899985969067,61.3191413001623,[np.float64(0.09074074074074075)],[np.float64(-0.053703703703703705)],[1],[0],[0],[1.2632828999776393],['target'],2,001,2025-09-30_15h43.14.632,Visual Search,,2025.1.1,59.810436764785926,2025-09-30 15h43.53.843031 +0530,
43,0,43,[np.float64(-0.4888888888888889)],[np.float64(0.026851851851851852)],[1],[0],[0],[1.2912531001493335],['target'],43,0,43,0,61.34043970005587,,10,61.33351130015217,61.34043970005587,61.34043970005587,0.014233299996703863,62.62486229999922,[np.float64(-0.4888888888888889)],[np.float64(0.026851851851851852)],[1],[0],[0],[1.2912531001493335],['target'],2,001,2025-09-30_15h43.14.632,Visual Search,,2025.1.1,59.810436764785926,2025-09-30 15h43.53.843031 +0530,
44,0,44,[np.float64(0.38796296296296295)],[np.float64(0.18333333333333332)],[1],[0],[0],[1.8508931000251323],['target'],44,0,44,0,62.64682859997265,,10,62.64017749996856,62.64682859997265,62.64682859997265,0.015116299968212843,64.4911632000003,[np.float64(0.38796296296296295)],[np.float64(0.18333333333333332)],[1],[0],[0],[1.8508931000251323],['target'],2,001,2025-09-30_15h43.14.632,Visual Search,,2025.1.1,59.810436764785926,2025-09-30 15h43.53.843031 +0530,
45,0,45,[np.float64(-0.30092592592592593)],[np.float64(-0.23148148148148148)],[1],[0],[0],[1.2751717001665384],[None],45,0,45,0,64.50465509993955,,5,64.49997450015508,64.50465509993955,64.50465509993955,0.008627000031992793,65.77525239996612,[np.float64(-0.30092592592592593)],[np.float64(-0.23148148148148148)],[1],[0],[0],[1.2751717001665384],[None],2,001,2025-09-30_15h43.14.632,Visual Search,,2025.1.1,59.810436764785926,2025-09-30 15h43.53.843031 +0530,
46,0,46,[np.float64(0.4564814814814815)],[np.float64(0.15833333333333333)],[1],[0],[0],[1.3157331999391317],['target'],46,0,46,0,65.79800539999269,,10,65.79131180001423,65.79800539999269,65.79800539999269,0.015879500191658735,67.10715689999051,[np.float64(0.4564814814814815)],[np.float64(0.15833333333333333)],[1],[0],[0],[1.3157331999391317],['target'],2,001,2025-09-30_15h43.14.632,Visual Search,,2025.1.1,59.810436764785926,2025-09-30 15h43.53.843031 +0530,
47,0,47,[np.float64(-0.03148148148148148)],[np.float64(0.20833333333333334)],[1],[0],[0],[1.2176781001035124],[None],47,0,47,0,67.12840780010447,,10,67.12191570014693,67.12840780010447,67.12840780010447,0.014581300085410476,68.3396817999892,[np.float64(-0.03148148148148148)],[np.float64(0.20833333333333334)],[1],[0],[0],[1.2176781001035124],[None],2,001,2025-09-30_15h43.14.632,Visual Search,,2025.1.1,59.810436764785926,2025-09-30 15h43.53.843031 +0530,
48,0,48,[np.float64(-0.3851851851851852)],[np.float64(0.43333333333333335)],[1],[0],[0],[1.327385500073433],['target'],48,0,48,0,68.35255660000257,,5,68.34818680002354,68.35255660000257,68.35255660000257,0.008329399861395359,69.67570140003227,[np.float64(-0.3851851851851852)],[np.float64(0.43333333333333335)],[1],[0],[0],[1.327385500073433],['target'],2,001,2025-09-30_15h43.14.632,Visual Search,,2025.1.1,59.810436764785926,2025-09-30 15h43.53.843031 +0530,
49,0,49,[np.float64(-0.5120370370370371)],[np.float64(-0.31851851851851853)],[1],[0],[0],[1.3718063000123948],[None],49,0,49,0,69.69057390000671,,5,69.68590490007773,69.69057390000671,69.69057390000671,0.009962799958884716,71.0578215001151,[np.float64(-0.5120370370370371)],[np.float64(-0.31851851851851853)],[1],[0],[0],[1.3718063000123948],[None],2,001,2025-09-30_15h43.14.632,Visual Search,,2025.1.1,59.810436764785926,2025-09-30 15h43.53.843031 +0530,
50,0,50,[np.float64(0.34444444444444444)],[np.float64(0.2222222222222222)],[1],[0],[0],[1.2399393999949098],['target'],50,0,50,0,71.07179990014993,,5,71.06708219996653,71.07179990014993,71.07179990014993,0.009066799888387322,72.30712370015681,[np.float64(0.34444444444444444)],[np.float64(0.2222222222222222)],[1],[0],[0],[1.2399393999949098],['target'],2,001,2025-09-30_15h43.14.632,Visual Search,,2025.1.1,59.810436764785926,2025-09-30 15h43.53.843031 +0530,
51,0,51,[np.float64(0.35648148148148145)],[np.float64(0.31296296296296294)],[1],[0],[0],[1.2968393999617547],['target'],51,0,51,0,72.33020039997064,,10,72.32335370010696,72.33020039997064,72.33020039997064,0.01606669998727739,73.62025239993818,[np.float64(0.35648148148148145)],[np.float64(0.31296296296296294)],[1],[0],[0],[1.2968393999617547],['target'],2,001,2025-09-30_15h43.14.632,Visual Search,,2025.1.1,59.810436764785926,2025-09-30 15h43.53.843031 +0530,
52,0,52,[np.float64(-0.11203703703703703)],[np.float64(0.16574074074074074)],[1],[0],[0],[1.3198907999321818],['target'],52,0,52,0,73.64040259993635,,10,73.63337299996056,73.64040259993635,73.64040259993635,0.013003199826925993,74.95338980015367,[np.float64(-0.11203703703703703)],[np.float64(0.16574074074074074)],[1],[0],[0],[1.3198907999321818],['target'],2,001,2025-09-30_15h43.14.632,Visual Search,,2025.1.1,59.810436764785926,2025-09-30 15h43.53.843031 +0530,
53,0,53,[np.float64(0.35)],[np.float64(-0.0712962962962963)],[1],[0],[0],[1.6396407999563962],['target'],53,0,53,0,74.97140010003932,,5,74.9667837000452,74.97140010003932,74.97140010003932,0.013161000097170472,76.60653460002504,[np.float64(0.35)],[np.float64(-0.0712962962962963)],[1],[0],[0],[1.6396407999563962],['target'],2,001,2025-09-30_15h43.14.632,Visual Search,,2025.1.1,59.810436764785926,2025-09-30 15h43.53.843031 +0530,
54,0,54,[np.float64(0.3101851851851852)],[np.float64(-0.12037037037037036)],[1],[0],[0],[0.8889855998568237],['target'],54,0,54,0,76.6215441999957,,5,76.61712289997377,76.6215441999957,76.6215441999957,0.010377599857747555,77.50620519998483,[np.float64(0.3101851851851852)],[np.float64(-0.12037037037037036)],[1],[0],[0],[0.8889855998568237],['target'],2,001,2025-09-30_15h43.14.632,Visual Search,,2025.1.1,59.810436764785926,2025-09-30 15h43.53.843031 +0530,
55,0,55,[np.float64(0.33611111111111114)],[np.float64(-0.45740740740740743)],[1],[0],[0],[1.480445999884978],['target'],55,0,55,0,77.52863420010544,,10,77.52212560013868,77.52863420010544,77.52863420010544,0.015754800057038665,79.00267620012164,[np.float64(0.33611111111111114)],[np.float64(-0.45740740740740743)],[1],[0],[0],[1.480445999884978],['target'],2,001,2025-09-30_15h43.14.632,Visual Search,,2025.1.1,59.810436764785926,2025-09-30 15h43.53.843031 +0530,
56,0,56,[np.float64(-0.11481481481481481)],[np.float64(0.3074074074074074)],[1],[0],[0],[1.4254481999669224],['target'],56,0,56,0,79.01902120001614,,5,79.01450789999217,79.01902120001614,79.01902120001614,0.011619699886068702,80.44008049997501,[np.float64(-0.11481481481481481)],[np.float64(0.3074074074074074)],[1],[0],[0],[1.4254481999669224],['target'],2,001,2025-09-30_15h43.14.632,Visual Search,,2025.1.1,59.810436764785926,2025-09-30 15h43.53.843031 +0530,
57,0,57,[np.float64(0.46944444444444444)],[np.float64(-0.39351851851851855)],[1],[0],[0],[2.086763000115752],['target'],57,0,57,0,80.45803670003079,,5,80.45309720002115,80.45803670003079,80.45803670003079,0.012806500075384974,82.53995160013437,[np.float64(0.46944444444444444)],[np.float64(-0.39351851851851855)],[1],[0],[0],[2.086763000115752],['target'],2,001,2025-09-30_15h43.14.632,Visual Search,,2025.1.1,59.810436764785926,2025-09-30 15h43.53.843031 +0530,
58,0,58,[np.float64(0.1935185185185185)],[np.float64(0.08981481481481482)],[1],[0],[0],[1.0736149000003934],['target'],58,0,58,0,82.55427210009657,,5,82.54950820002705,82.55427210009657,82.55427210009657,0.009399099973961711,83.6232164001558,[np.float64(0.1935185185185185)],[np.float64(0.08981481481481482)],[1],[0],[0],[1.0736149000003934],['target'],2,001,2025-09-30_15h43.14.632,Visual Search,,2025.1.1,59.810436764785926,2025-09-30 15h43.53.843031 +0530,
59,0,59,[np.float64(0.09444444444444444)],[np.float64(-0.17037037037037037)],[1],[0],[0],[1.5088788999710232],['target'],59,0,59,0,83.63664170005359,,5,83.63217000011355,83.63664170005359,83.63664170005359,0.008792500011622906,85.14118150016293,[np.float64(0.09444444444444444)],[np.float64(-0.17037037037037037)],[1],[0],[0],[1.5088788999710232],['target'],2,001,2025-09-30_15h43.14.632,Visual Search,,2025.1.1,59.810436764785926,2025-09-30 15h43.53.843031 +0530,
60,0,60,[np.float64(0.39351851851851855)],[np.float64(-0.11388888888888889)],[1],[0],[0],[1.220101400045678],['target'],60,0,60,0,85.15667139994912,,5,85.15197769994847,85.15667139994912,85.15667139994912,0.010569700039923191,86.37215850013308,[np.float64(0.39351851851851855)],[np.float64(-0.11388888888888889)],[1],[0],[0],[1.220101400045678],['target'],2,001,2025-09-30_15h43.14.632,Visual Search,,2025.1.1,59.810436764785926,2025-09-30 15h43.53.843031 +0530,
61,0,61,[np.float64(0.38981481481481484)],[np.float64(0.44722222222222224)],[1],[0],[0],[1.3434488999191672],['target'],61,0,61,0,86.38509789993986,,5,86.380678600166,86.38509789993986,86.38509789993986,0.008386799832805991,87.72421799995936,[np.float64(0.38981481481481484)],[np.float64(0.44722222222222224)],[1],[0],[0],[1.3434488999191672],['target'],2,001,2025-09-30_15h43.14.632,Visual Search,,2025.1.1,59.810436764785926,2025-09-30 15h43.53.843031 +0530,
62,0,62,[np.float64(-0.4759259259259259)],[np.float64(0.09907407407407408)],[1],[0],[0],[1.3195152000989765],[None],62,0,62,0,87.74505180004053,,10,87.73870540014468,87.74505180004053,87.74505180004053,0.014340599998831749,89.05832640011795,[np.float64(-0.4759259259259259)],[np.float64(0.09907407407407408)],[1],[0],[0],[1.3195152000989765],[None],2,001,2025-09-30_15h43.14.632,Visual Search,,2025.1.1,59.810436764785926,2025-09-30 15h43.53.843031 +0530,
63,0,63,[np.float64(0.25)],[np.float64(0.18703703703703703)],[1],[0],[0],[1.4154218998737633],[None],63,0,63,0,89.07988890004344,,10,89.07363800005987,89.07988890004344,89.07988890004344,0.015085199847817421,90.48915120004676,[np.float64(0.25)],[np.float64(0.18703703703703703)],[1],[0],[0],[1.4154218998737633],[None],2,001,2025-09-30_15h43.14.632,Visual Search,,2025.1.1,59.810436764785926,2025-09-30 15h43.53.843031 +0530,
64,0,64,[np.float64(0.28703703703703703)],[np.float64(0.09444444444444444)],[1],[0],[0],[0.9143809999804944],[None],64,0,64,0,90.51183530013077,,10,90.50500000012107,90.51183530013077,90.51183530013077,0.01566779986023903,91.41948879999109,[np.float64(0.28703703703703703)],[np.float64(0.09444444444444444)],[1],[0],[0],[0.9143809999804944],[None],2,001,2025-09-30_15h43.14.632,Visual Search,,2025.1.1,59.810436764785926,2025-09-30 15h43.53.843031 +0530,
65,0,65,[np.float64(-0.4527777777777778)],[np.float64(-0.3972222222222222)],[1],[0],[0],[1.3157100998796523],['target'],65,0,65,0,91.4466941000428,,10,91.44025280000642,91.4466941000428,91.4466941000428,0.02053950005210936,92.75606010016054,[np.float64(-0.4527777777777778)],[np.float64(-0.3972222222222222)],[1],[0],[0],[1.3157100998796523],['target'],2,001,2025-09-30_15h43.14.632,Visual Search,,2025.1.1,59.810436764785926,2025-09-30 15h43.53.843031 +0530,
66,0,66,[np.float64(-0.1175925925925926)],[np.float64(0.09351851851851851)],[1],[0],[0],[1.4247353000100702],['target'],66,0,66,0,92.7698648001533,,5,92.76503750006668,92.7698648001533,92.7698648001533,0.008794699795544147,94.18986209994182,[np.float64(-0.1175925925925926)],[np.float64(0.09351851851851851)],[1],[0],[0],[1.4247353000100702],['target'],2,001,2025-09-30_15h43.14.632,Visual Search,,2025.1.1,59.810436764785926,2025-09-30 15h43.53.843031 +0530,
67,0,67,[np.float64(-0.425)],[np.float64(0.14074074074074075)],[1],[0],[0],[1.2219551000744104],['target'],67,0,67,0,94.20275980001315,,5,94.19833990000188,94.20275980001315,94.20275980001315,0.008329099975526333,95.42047980008647,[np.float64(-0.425)],[np.float64(0.14074074074074075)],[1],[0],[0],[1.2219551000744104],['target'],2,001,2025-09-30_15h43.14.632,Visual Search,,2025.1.1,59.810436764785926,2025-09-30 15h43.53.843031 +0530,
68,0,68,[np.float64(-0.11944444444444445)],[np.float64(-0.25277777777777777)],[1],[0],[0],[1.2703396000433713],['target'],68,0,68,0,95.44498850009404,,10,95.43837670003995,95.44498850009404,95.44498850009404,0.01759569998830557,96.70885040005669,[np.float64(-0.11944444444444445)],[np.float64(-0.25277777777777777)],[1],[0],[0],[1.2703396000433713],['target'],2,001,2025-09-30_15h43.14.632,Visual Search,,2025.1.1,59.810436764785926,2025-09-30 15h43.53.843031 +0530,
69,0,69,[np.float64(0.32592592592592595)],[np.float64(-0.4601851851851852)],[1],[0],[0],[1.811342699918896],[None],69,0,69,0,96.73236749996431,,10,96.72564460011199,96.73236749996431,96.73236749996431,0.016542400000616908,98.53704329999164,[np.float64(0.32592592592592595)],[np.float64(-0.4601851851851852)],[1],[0],[0],[1.811342699918896],[None],2,001,2025-09-30_15h43.14.632,Visual Search,,2025.1.1,59.810436764785926,2025-09-30 15h43.53.843031 +0530,
70,0,70,[np.float64(-0.3148148148148148)],[np.float64(0.4111111111111111)],[1],[0],[0],[1.6369815999642015],['target'],70,0,70,0,98.55858179996721,,10,98.55226820008829,98.55858179996721,98.55858179996721,0.015108900144696236,100.18933550012298,[np.float64(-0.3148148148148148)],[np.float64(0.4111111111111111)],[1],[0],[0],[1.6369815999642015],['target'],2,001,2025-09-30_15h43.14.632,Visual Search,,2025.1.1,59.810436764785926,2025-09-30 15h43.53.843031 +0530,
71,0,71,[np.float64(0.27870370370370373)],[np.float64(-0.46574074074074073)],[1],[0],[0],[1.5579474999103695],['target'],71,0,71,0,100.20361750014126,,5,100.1990796001628,100.20361750014126,100.20361750014126,0.00956659996882081,101.75711910007522,[np.float64(0.27870370370370373)],[np.float64(-0.46574074074074073)],[1],[0],[0],[1.5579474999103695],['target'],2,001,2025-09-30_15h43.14.632,Visual Search,,2025.1.1,59.810436764785926,2025-09-30 15h43.53.843031 +0530,
72,0,72,[np.float64(0.023148148148148147)],[np.float64(0.3296296296296296)],[1],[0],[0],[1.3291851999238133],['target'],72,0,72,0,101.78062260011211,,10,101.77397110010497,101.78062260011211,101.78062260011211,0.016690900083631277,103.10329420003109,[np.float64(0.023148148148148147)],[np.float64(0.3296296296296296)],[1],[0],[0],[1.3291851999238133],['target'],2,001,2025-09-30_15h43.14.632,Visual Search,,2025.1.1,59.810436764785926,2025-09-30 15h43.53.843031 +0530,
73,0,73,[np.float64(0.3138888888888889)],[np.float64(-0.44907407407407407)],[1],[0],[0],[1.8163786998484284],['target'],73,0,73,0,103.12584290001541,,10,103.11964630009606,103.12584290001541,103.12584290001541,0.016087900148704648,104.93614450003952,[np.float64(0.3138888888888889)],[np.float64(-0.44907407407407407)],[1],[0],[0],[1.8163786998484284],['target'],2,001,2025-09-30_15h43.14.632,Visual Search,,2025.1.1,59.810436764785926,2025-09-30 15h43.53.843031 +0530,
74,0,74,[np.float64(-0.05092592592592592)],[np.float64(-0.24444444444444444)],[1],[0],[0],[1.17540069995448],['target'],74,0,74,0,104.9520402001217,,5,104.9478222001344,104.9520402001217,104.9520402001217,0.011438700137659907,106.12331450008787,[np.float64(-0.05092592592592592)],[np.float64(-0.24444444444444444)],[1],[0],[0],[1.17540069995448],['target'],2,001,2025-09-30_15h43.14.632,Visual Search,,2025.1.1,59.810436764785926,2025-09-30 15h43.53.843031 +0530,
75,0,75,[np.float64(-0.06018518518518518)],[np.float64(-0.3194444444444444)],[1],[0],[0],[1.2419547999743372],['target'],75,0,75,0,106.13657200010493,,5,106.13182020001113,106.13657200010493,106.13657200010493,0.008359899977222085,107.37387420004234,[np.float64(-0.06018518518518518)],[np.float64(-0.3194444444444444)],[1],[0],[0],[1.2419547999743372],['target'],2,001,2025-09-30_15h43.14.632,Visual Search,,2025.1.1,59.810436764785926,2025-09-30 15h43.53.843031 +0530,
76,0,76,[np.float64(-0.3472222222222222)],[np.float64(0.1537037037037037)],[1],[0],[0],[1.2887212000787258],['target'],76,0,76,0,107.38923380011693,,5,107.38467660010792,107.38923380011693,107.38923380011693,0.01063639996573329,108.67350809997879,[np.float64(-0.3472222222222222)],[np.float64(0.1537037037037037)],[1],[0],[0],[1.2887212000787258],['target'],2,001,2025-09-30_15h43.14.632,Visual Search,,2025.1.1,59.810436764785926,2025-09-30 15h43.53.843031 +0530,
77,0,77,[np.float64(0.37407407407407406)],[np.float64(-0.32222222222222224)],[1],[0],[0],[1.2174742000643164],['target'],77,0,77,0,108.6956869000569,,10,108.6898310999386,108.6956869000569,108.6956869000569,0.016134199919179082,109.90741590014659,[np.float64(0.37407407407407406)],[np.float64(-0.32222222222222224)],[1],[0],[0],[1.2174742000643164],['target'],2,001,2025-09-30_15h43.14.632,Visual Search,,2025.1.1,59.810436764785926,2025-09-30 15h43.53.843031 +0530,
78,0,78,[np.float64(-0.016666666666666666)],[np.float64(0.1037037037037037)],[1],[0],[0],[1.4153504001442343],['target'],78,0,78,0,109.93027799995616,,10,109.92371949995868,109.93027799995616,109.93027799995616,0.016083599999547005,111.33916820003651,[np.float64(-0.016666666666666666)],[np.float64(0.1037037037037037)],[1],[0],[0],[1.4153504001442343],['target'],2,001,2025-09-30_15h43.14.632,Visual Search,,2025.1.1,59.810436764785926,2025-09-30 15h43.53.843031 +0530,
79,0,79,[np.float64(-0.19166666666666668)],[np.float64(0.45925925925925926)],[1],[0],[0],[1.268746999790892],[None],79,0,79,0,111.36019659996964,,10,111.3538816999644,111.36019659996964,111.36019659996964,0.014532299945130944,112.62271449994296,[np.float64(-0.19166666666666668)],[np.float64(0.45925925925925926)],[1],[0],[0],[1.268746999790892],[None],2,001,2025-09-30_15h43.14.632,Visual Search,,2025.1.1,59.810436764785926,2025-09-30 15h43.53.843031 +0530,
80,0,80,[np.float64(-0.03611111111111111)],[np.float64(0.3175925925925926)],[1],[0],[0],[1.1519714000169188],['target'],80,0,80,0,112.63809880008921,,5,112.63320569996722,112.63809880008921,112.63809880008921,0.01027500000782311,113.78524710005149,[np.float64(-0.03611111111111111)],[np.float64(0.3175925925925926)],[1],[0],[0],[1.1519714000169188],['target'],2,001,2025-09-30_15h43.14.632,Visual Search,,2025.1.1,59.810436764785926,2025-09-30 15h43.53.843031 +0530,
81,0,81,[np.float64(0.4222222222222222)],[np.float64(0.25833333333333336)],[1],[0],[0],[1.2841757000423968],['target'],81,0,81,0,113.85771020012908,,10,113.85141859995201,113.85771020012908,113.85771020012908,0.06605709996074438,115.13570929993875,[np.float64(0.4222222222222222)],[np.float64(0.25833333333333336)],[1],[0],[0],[1.2841757000423968],['target'],2,001,2025-09-30_15h43.14.632,Visual Search,,2025.1.1,59.810436764785926,2025-09-30 15h43.53.843031 +0530,
82,0,82,[np.float64(0.1425925925925926)],[np.float64(0.11481481481481481)],[1],[0],[0],[1.2514492999762297],['target'],82,0,82,0,115.16064120014198,,10,115.15463550016284,115.16064120014198,115.16064120014198,0.01867099991068244,116.40630490006879,[np.float64(0.1425925925925926)],[np.float64(0.11481481481481481)],[1],[0],[0],[1.2514492999762297],['target'],2,001,2025-09-30_15h43.14.632,Visual Search,,2025.1.1,59.810436764785926,2025-09-30 15h43.53.843031 +0530,
83,0,83,[np.float64(-0.06666666666666667)],[np.float64(0.26944444444444443)],[1],[0],[0],[1.0140178999863565],[None],83,0,83,0,116.43062809994444,,10,116.42373130004853,116.43062809994444,116.43062809994444,0.01721879979595542,117.4378202999942,[np.float64(-0.06666666666666667)],[np.float64(0.26944444444444443)],[1],[0],[0],[1.0140178999863565],[None],2,001,2025-09-30_15h43.14.632,Visual Search,,2025.1.1,59.810436764785926,2025-09-30 15h43.53.843031 +0530,
84,0,84,[np.float64(0.10648148148148148)],[np.float64(-0.1787037037037037)],[1],[0],[0],[1.2428494999185205],[None],84,0,84,0,117.45070439996198,,5,117.44534380012192,117.45070439996198,117.45070439996198,0.007382000098004937,118.6882837000303,[np.float64(0.10648148148148148)],[np.float64(-0.1787037037037037)],[1],[0],[0],[1.2428494999185205],[None],2,001,2025-09-30_15h43.14.632,Visual Search,,2025.1.1,59.810436764785926,2025-09-30 15h43.53.843031 +0530,
85,0,85,[np.float64(0.24351851851851852)],[np.float64(-0.20092592592592592)],[1],[0],[0],[1.1497772000730038],[None],85,0,85,0,118.70931029994972,,10,118.70285140001215,118.70931029994972,118.70931029994972,0.014432499883696437,119.85268340003677,[np.float64(0.24351851851851852)],[np.float64(-0.20092592592592592)],[1],[0],[0],[1.1497772000730038],[None],2,001,2025-09-30_15h43.14.632,Visual Search,,2025.1.1,59.810436764785926,2025-09-30 15h43.53.843031 +0530,
86,0,86,[np.float64(-0.046296296296296294)],[np.float64(-0.48518518518518516)],[1],[0],[0],[1.738399899797514],['target'],86,0,86,0,119.87372040003538,,10,119.86708300001919,119.87372040003538,119.87372040003538,0.01430039992555976,121.60558670014143,[np.float64(-0.046296296296296294)],[np.float64(-0.48518518518518516)],[1],[0],[0],[1.738399899797514],['target'],2,001,2025-09-30_15h43.14.632,Visual Search,,2025.1.1,59.810436764785926,2025-09-30 15h43.53.843031 +0530,
87,0,87,[np.float64(0.3592592592592593)],[np.float64(-0.4425925925925926)],[1],[0],[0],[1.3261688000056893],['target'],87,0,87,0,121.62031939998269,,5,121.61526460014284,121.62031939998269,121.62031939998269,0.009462299989536405,122.94154700008221,[np.float64(0.3592592592592593)],[np.float64(-0.4425925925925926)],[1],[0],[0],[1.3261688000056893],['target'],2,001,2025-09-30_15h43.14.632,Visual Search,,2025.1.1,59.810436764785926,2025-09-30 15h43.53.843031 +0530,
88,0,88,[np.float64(-0.2824074074074074)],[np.float64(-0.36944444444444446)],[1],[0],[0],[2.4106068999972194],['target'],88,0,88,0,122.96502420003526,,10,122.95809029997326,122.96502420003526,122.96502420003526,0.016348500037565827,125.36880629998632,[np.float64(-0.2824074074074074)],[np.float64(-0.36944444444444446)],[1],[0],[0],[2.4106068999972194],['target'],2,001,2025-09-30_15h43.14.632,Visual Search,,2025.1.1,59.810436764785926,2025-09-30 15h43.53.843031 +0530,
89,0,89,[np.float64(0.3333333333333333)],[np.float64(-0.13518518518518519)],[1],[0],[0],[1.2424562999513],['target'],89,0,89,0,125.38645600015298,,5,125.3819045999553,125.38645600015298,125.38645600015298,0.012871199985966086,126.62444850010797,[np.float64(0.3333333333333333)],[np.float64(-0.13518518518518519)],[1],[0],[0],[1.2424562999513],['target'],2,001,2025-09-30_15h43.14.632,Visual Search,,2025.1.1,59.810436764785926,2025-09-30 15h43.53.843031 +0530,
90,0,90,[np.float64(0.20277777777777778)],[np.float64(0.4759259259259259)],[1],[0],[0],[1.307515700114891],['target'],90,0,90,0,126.6373674001079,,5,126.6327627999708,126.6373674001079,126.6373674001079,0.008144699968397617,127.94038700009696,[np.float64(0.20277777777777778)],[np.float64(0.4759259259259259)],[1],[0],[0],[1.307515700114891],['target'],2,001,2025-09-30_15h43.14.632,Visual Search,,2025.1.1,59.810436764785926,2025-09-30 15h43.53.843031 +0530,
91,0,91,[np.float64(0.2564814814814815)],[np.float64(-0.3972222222222222)],[1],[0],[0],[1.6968470001593232],['target'],91,0,91,0,127.9645827000495,,10,127.95768769993447,127.9645827000495,127.9645827000495,0.017115499824285507,129.65462639997713,[np.float64(0.2564814814814815)],[np.float64(-0.3972222222222222)],[1],[0],[0],[1.6968470001593232],['target'],2,001,2025-09-30_15h43.14.632,Visual Search,,2025.1.1,59.810436764785926,2025-09-30 15h43.53.843031 +0530,
92,0,92,[np.float64(-0.23796296296296296)],[np.float64(0.15648148148148147)],[1],[0],[0],[1.3406722000800073],['target'],92,0,92,0,129.66925720009021,,5,129.66496560000814,129.66925720009021,129.66925720009021,0.010150900110602379,131.0057342001237,[np.float64(-0.23796296296296296)],[np.float64(0.15648148148148147)],[1],[0],[0],[1.3406722000800073],['target'],2,001,2025-09-30_15h43.14.632,Visual Search,,2025.1.1,59.810436764785926,2025-09-30 15h43.53.843031 +0530,
93,0,93,[np.float64(0.3148148148148148)],[np.float64(0.45740740740740743)],[1],[0],[0],[1.1516996000427753],['target'],93,0,93,0,131.02827850007452,,10,131.0217600001488,131.02827850007452,131.02827850007452,0.015861100051552057,132.1735513000749,[np.float64(0.3148148148148148)],[np.float64(0.45740740740740743)],[1],[0],[0],[1.1516996000427753],['target'],2,001,2025-09-30_15h43.14.632,Visual Search,,2025.1.1,59.810436764785926,2025-09-30 15h43.53.843031 +0530,
94,0,94,[np.float64(-0.11574074074074074)],[np.float64(-0.25555555555555554)],[1],[0],[0],[1.396684599807486],['target'],94,0,94,0,132.1956772999838,,10,132.1893639001064,132.1956772999838,132.1956772999838,0.015604499960318208,133.58618830004707,[np.float64(-0.11574074074074074)],[np.float64(-0.25555555555555554)],[1],[0],[0],[1.396684599807486],['target'],2,001,2025-09-30_15h43.14.632,Visual Search,,2025.1.1,59.810436764785926,2025-09-30 15h43.53.843031 +0530,
95,0,95,[np.float64(0.2324074074074074)],[np.float64(-0.2064814814814815)],[1],[0],[0],[1.2647421001456678],['target'],95,0,95,0,133.61166439997032,,10,133.60375609993935,133.61166439997032,133.61166439997032,0.01731969998218119,134.86858500004746,[np.float64(0.2324074074074074)],[np.float64(-0.2064814814814815)],[1],[0],[0],[1.2647421001456678],['target'],2,001,2025-09-30_15h43.14.632,Visual Search,,2025.1.1,59.810436764785926,2025-09-30 15h43.53.843031 +0530,
96,0,96,[np.float64(0.17777777777777778)],[np.float64(0.2361111111111111)],[1],[0],[0],[1.21248250012286],['target'],96,0,96,0,134.88407120015472,,5,134.87710390007123,134.88407120015472,134.88407120015472,0.008331299992278218,136.08968110010028,[np.float64(0.17777777777777778)],[np.float64(0.2361111111111111)],[1],[0],[0],[1.21248250012286],['target'],2,001,2025-09-30_15h43.14.632,Visual Search,,2025.1.1,59.810436764785926,2025-09-30 15h43.53.843031 +0530,
97,0,97,[np.float64(0.37777777777777777)],[np.float64(-0.30833333333333335)],[1],[0],[0],[1.3054053001105785],['target'],97,0,97,0,136.10285430005752,,5,136.09849130013026,136.10285430005752,136.10285430005752,0.008632400073111057,137.40397000010125,[np.float64(0.37777777777777777)],[np.float64(-0.30833333333333335)],[1],[0],[0],[1.3054053001105785],['target'],2,001,2025-09-30_15h43.14.632,Visual Search,,2025.1.1,59.810436764785926,2025-09-30 15h43.53.843031 +0530,
98,0,98,[np.float64(0.225)],[np.float64(-0.05740740740740741)],[1],[0],[0],[1.0721304998733103],[None],98,0,98,0,137.4236243001651,,10,137.41748289996758,137.4236243001651,137.4236243001651,0.01340519986115396,138.48969950014725,[np.float64(0.225)],[np.float64(-0.05740740740740741)],[1],[0],[0],[1.0721304998733103],[None],2,001,2025-09-30_15h43.14.632,Visual Search,,2025.1.1,59.810436764785926,2025-09-30 15h43.53.843031 +0530,
99,0,99,[np.float64(0.4212962962962963)],[np.float64(0.5)],[1],[0],[0],[1.009545300155878],[None],99,0,99,0,138.5022825000342,,5,138.49785219994374,138.5022825000342,138.5022825000342,0.007978500099852681,139.50751410005614,[np.float64(0.4212962962962963)],[np.float64(0.5)],[1],[0],[0],[1.009545300155878],[None],2,001,2025-09-30_15h43.14.632,Visual Search,,2025.1.1,59.810436764785926,2025-09-30 15h43.53.843031 +0530,
100,0,100,[np.float64(0.3861111111111111)],[np.float64(-0.3888888888888889)],[1],[0],[0],[1.5792247999925166],[None],100,0,100,0,139.53398280008696,,10,139.52687679999508,139.53398280008696,139.53398280008696,0.01918939989991486,141.10618810006417,[np.float64(0.3861111111111111)],[np.float64(-0.3888888888888889)],[1],[0],[0],[1.5792247999925166],[None],2,001,2025-09-30_15h43.14.632,Visual Search,,2025.1.1,59.810436764785926,2025-09-30 15h43.53.843031 +0530,
101,0,101,[np.float64(-0.07222222222222222)],[np.float64(-0.38055555555555554)],[1],[0],[0],[1.2544868998229504],['target'],101,0,101,0,141.11892480007373,,5,141.11452140007168,141.11892480007373,141.11892480007373,0.008158399956300855,142.36911229998805,[np.float64(-0.07222222222222222)],[np.float64(-0.38055555555555554)],[1],[0],[0],[1.2544868998229504],['target'],2,001,2025-09-30_15h43.14.632,Visual Search,,2025.1.1,59.810436764785926,2025-09-30 15h43.53.843031 +0530,
102,0,102,[np.float64(0.2777777777777778)],[np.float64(-0.3537037037037037)],[1],[0],[0],[1.221984799951315],['target'],102,0,102,0,142.38920970004983,,5,142.3843113000039,142.38920970004983,142.38920970004983,0.015046400018036366,143.6063717000652,[np.float64(0.2777777777777778)],[np.float64(-0.3537037037037037)],[1],[0],[0],[1.221984799951315],['target'],2,001,2025-09-30_15h43.14.632,Visual Search,,2025.1.1,59.810436764785926,2025-09-30 15h43.53.843031 +0530,
103,0,103,[np.float64(-0.4527777777777778)],[np.float64(-0.4398148148148148)],[1],[0],[0],[1.519944699946791],['target'],103,0,103,0,143.64324040012434,,10,143.63603199995123,143.64324040012434,143.64324040012434,0.029500999953597784,145.15608440013602,[np.float64(-0.4527777777777778)],[np.float64(-0.4398148148148148)],[1],[0],[0],[1.519944699946791],['target'],2,001,2025-09-30_15h43.14.632,Visual Search,,2025.1.1,59.810436764785926,2025-09-30 15h43.53.843031 +0530,
104,0,104,[np.float64(-0.06111111111111111)],[np.float64(0.28703703703703703)],[1],[0],[0],[1.1334806000813842],['target'],104,0,104,0,145.17855500010774,,10,145.17243529995903,145.17855500010774,145.17855500010774,0.01612889999523759,146.30601210007444,[np.float64(-0.06111111111111111)],[np.float64(0.28703703703703703)],[1],[0],[0],[1.1334806000813842],['target'],2,001,2025-09-30_15h43.14.632,Visual Search,,2025.1.1,59.810436764785926,2025-09-30 15h43.53.843031 +0530,
105,0,105,[np.float64(0.45092592592592595)],[np.float64(-0.3472222222222222)],[1],[0],[0],[1.710875199874863],['target'],105,0,105,0,146.3314165000338,,10,146.32428600010462,146.3314165000338,146.3314165000338,0.018089399905875325,148.0352567001246,[np.float64(0.45092592592592595)],[np.float64(-0.3472222222222222)],[1],[0],[0],[1.710875199874863],['target'],2,001,2025-09-30_15h43.14.632,Visual Search,,2025.1.1,59.810436764785926,2025-09-30 15h43.53.843031 +0530,
106,0,106,[np.float64(-0.21574074074074073)],[np.float64(0.009259259259259259)],[1],[0],[0],[1.8445007000118494],['target'],106,0,106,0,148.0503505000379,,5,148.04422349995002,148.0503505000379,148.0503505000379,0.00879729981534183,149.8888233001344,[np.float64(-0.21574074074074073)],[np.float64(0.009259259259259259)],[1],[0],[0],[1.8445007000118494],['target'],2,001,2025-09-30_15h43.14.632,Visual Search,,2025.1.1,59.810436764785926,2025-09-30 15h43.53.843031 +0530,
107,0,107,[np.float64(-0.05)],[np.float64(-0.3712962962962963)],[1],[0],[0],[1.3338334998115897],['target'],107,0,107,0,149.9099242000375,,10,149.9033747999929,149.9099242000375,149.9099242000375,0.014395799953490496,151.23727670009248,[np.float64(-0.05)],[np.float64(-0.3712962962962963)],[1],[0],[0],[1.3338334998115897],['target'],2,001,2025-09-30_15h43.14.632,Visual Search,,2025.1.1,59.810436764785926,2025-09-30 15h43.53.843031 +0530,
108,0,108,[np.float64(0.32685185185185184)],[np.float64(0.05)],[1],[0],[0],[1.3111095998901874],['target'],108,0,108,0,151.25048599997535,,5,151.24499120004475,151.25048599997535,151.25048599997535,0.007569100009277463,152.55618469999172,[np.float64(0.32685185185185184)],[np.float64(0.05)],[1],[0],[0],[1.3111095998901874],['target'],2,001,2025-09-30_15h43.14.632,Visual Search,,2025.1.1,59.810436764785926,2025-09-30 15h43.53.843031 +0530,
109,0,109,[np.float64(-0.1259259259259259)],[np.float64(0.10833333333333334)],[1],[0],[0],[1.2234427998773754],['target'],109,0,109,0,152.57049420010298,,5,152.56599569995888,152.57049420010298,152.57049420010298,0.009658899856731296,153.78957310016267,[np.float64(-0.1259259259259259)],[np.float64(0.10833333333333334)],[1],[0],[0],[1.2234427998773754],['target'],2,001,2025-09-30_15h43.14.632,Visual Search,,2025.1.1,59.810436764785926,2025-09-30 15h43.53.843031 +0530,
110,0,110,[np.float64(-0.23055555555555557)],[np.float64(0.2712962962962963)],[1],[0],[0],[1.0671294999774545],['target'],110,0,110,0,153.81208260008134,,10,153.80578830000013,153.81208260008134,153.81208260008134,0.016020199982449412,154.8730111999903,[np.float64(-0.23055555555555557)],[np.float64(0.2712962962962963)],[1],[0],[0],[1.0671294999774545],['target'],2,001,2025-09-30_15h43.14.632,Visual Search,,2025.1.1,59.810436764785926,2025-09-30 15h43.53.843031 +0530,
111,0,111,[np.float64(0.32222222222222224)],[np.float64(0.09444444444444444)],[1],[0],[0],[1.1025332000572234],['target'],111,0,111,0,154.89464260009117,,10,154.88791409996338,154.89464260009117,154.89464260009117,0.014716600067913532,155.99054730008356,[np.float64(0.32222222222222224)],[np.float64(0.09444444444444444)],[1],[0],[0],[1.1025332000572234],['target'],2,001,2025-09-30_15h43.14.632,Visual Search,,2025.1.1,59.810436764785926,2025-09-30 15h43.53.843031 +0530,
112,0,112,[np.float64(0.41944444444444445)],[np.float64(0.11574074074074074)],[1],[0],[0],[1.6899602999910712],[None],112,0,112,0,156.00427530007437,,5,155.9996249000542,156.00427530007437,156.00427530007437,0.008878400083631277,157.6896780000534,[np.float64(0.41944444444444445)],[np.float64(0.11574074074074074)],[1],[0],[0],[1.6899602999910712],[None],2,001,2025-09-30_15h43.14.632,Visual Search,,2025.1.1,59.810436764785926,2025-09-30 15h43.53.843031 +0530,
113,0,113,[np.float64(0.1527777777777778)],[np.float64(-0.2064814814814815)],[1],[0],[0],[1.1319680002052337],['target'],113,0,113,0,157.70734970015474,,5,157.70314580015838,157.70734970015474,157.70734970015474,0.013300599996000528,158.83521510008723,[np.float64(0.1527777777777778)],[np.float64(-0.2064814814814815)],[1],[0],[0],[1.1319680002052337],['target'],2,001,2025-09-30_15h43.14.632,Visual Search,,2025.1.1,59.810436764785926,2025-09-30 15h43.53.843031 +0530,
114,0,114,[np.float64(-0.15185185185185185)],[np.float64(-0.23981481481481481)],[1],[0],[0],[1.1076183998957276],[None],114,0,114,0,158.8527069000993,,5,158.84768770006485,158.8527069000993,158.8527069000993,0.01229900005273521,159.95540560013615,[np.float64(-0.15185185185185185)],[np.float64(-0.23981481481481481)],[1],[0],[0],[1.1076183998957276],[None],2,001,2025-09-30_15h43.14.632,Visual Search,,2025.1.1,59.810436764785926,2025-09-30 15h43.53.843031 +0530,
115,0,115,[np.float64(0.30648148148148147)],[np.float64(-0.32037037037037036)],[1],[0],[0],[1.3009814999531955],['target'],115,0,115,0,159.97732669999823,,10,159.97100320016034,159.97732669999823,159.97732669999823,0.015432399930432439,161.27206800016575,[np.float64(0.30648148148148147)],[np.float64(-0.32037037037037036)],[1],[0],[0],[1.3009814999531955],['target'],2,001,2025-09-30_15h43.14.632,Visual Search,,2025.1.1,59.810436764785926,2025-09-30 15h43.53.843031 +0530,
116,0,116,[np.float64(-0.2851851851851852)],[np.float64(-0.1712962962962963)],[1],[0],[0],[1.4853423000313342],['target'],116,0,116,0,161.29275409993716,,10,161.2861385999713,161.29275409993716,161.29275409993716,0.013907599961385131,162.7715809000656,[np.float64(-0.2851851851851852)],[np.float64(-0.1712962962962963)],[1],[0],[0],[1.4853423000313342],['target'],2,001,2025-09-30_15h43.14.632,Visual Search,,2025.1.1,59.810436764785926,2025-09-30 15h43.53.843031 +0530,
117,0,117,[np.float64(-0.4074074074074074)],[np.float64(0.3351851851851852)],[1],[0],[0],[1.3334236000664532],['target'],117,0,117,0,162.795365100028,,10,162.7886835001409,162.795365100028,162.795365100028,0.01690039993263781,164.12226020009257,[np.float64(-0.4074074074074074)],[np.float64(0.3351851851851852)],[1],[0],[0],[1.3334236000664532],['target'],2,001,2025-09-30_15h43.14.632,Visual Search,,2025.1.1,59.810436764785926,2025-09-30 15h43.53.843031 +0530,
118,0,118,[np.float64(-0.5064814814814815)],[np.float64(-0.2740740740740741)],[1],[0],[0],[1.751656899927184],['target'],118,0,118,0,164.14524520002306,,10,164.1378595000133,164.14524520002306,164.14524520002306,0.015320500126108527,165.88961050007492,[np.float64(-0.5064814814814815)],[np.float64(-0.2740740740740741)],[1],[0],[0],[1.751656899927184],['target'],2,001,2025-09-30_15h43.14.632,Visual Search,,2025.1.1,59.810436764785926,2025-09-30 15h43.53.843031 +0530,
119,0,119,[np.float64(0.11018518518518519)],[np.float64(-0.3138888888888889)],[1],[0],[0],[1.1351956999860704],['target'],119,0,119,0,165.90476349997334,,5,165.8999544000253,165.90476349997334,165.90476349997334,0.01015960006043315,167.03525079996325,[np.float64(0.11018518518518519)],[np.float64(-0.3138888888888889)],[1],[0],[0],[1.1351956999860704],['target'],2,001,2025-09-30_15h43.14.632,Visual Search,,2025.1.1,59.810436764785926,2025-09-30 15h43.53.843031 +0530,
120,0,120,[np.float64(0.3277777777777778)],[np.float64(0.4601851851851852)],[1],[0],[0],[1.2715781999286264],['target'],120,0,120,0,167.05797680001706,,10,167.05163050000556,167.05797680001706,167.05797680001706,0.015793099999427795,168.32330869999714,[np.float64(0.3277777777777778)],[np.float64(0.4601851851851852)],[1],[0],[0],[1.2715781999286264],['target'],2,001,2025-09-30_15h43.14.632,Visual Search,,2025.1.1,59.810436764785926,2025-09-30 15h43.53.843031 +0530,
121,0,121,[np.float64(-0.44074074074074077)],[np.float64(0.4046296296296296)],[1],[0],[0],[1.9545199999120086],['target'],121,0,121,0,168.33872070000507,,5,168.33395060012117,168.33872070000507,168.33872070000507,0.010438799858093262,170.28855890012346,[np.float64(-0.44074074074074077)],[np.float64(0.4046296296296296)],[1],[0],[0],[1.9545199999120086],['target'],2,001,2025-09-30_15h43.14.632,Visual Search,,2025.1.1,59.810436764785926,2025-09-30 15h43.53.843031 +0530,
122,0,122,[np.float64(-0.4009259259259259)],[np.float64(0.09907407407407408)],[1],[0],[0],[1.0056580998934805],['target'],122,0,122,0,170.30415830016136,,5,170.2994528999552,170.30415830016136,170.30415830016136,0.010740699945017695,171.30519680003636,[np.float64(-0.4009259259259259)],[np.float64(0.09907407407407408)],[1],[0],[0],[1.0056580998934805],['target'],2,001,2025-09-30_15h43.14.632,Visual Search,,2025.1.1,59.810436764785926,2025-09-30 15h43.53.843031 +0530,
123,0,123,[np.float64(-0.45925925925925926)],[np.float64(0.16111111111111112)],[1],[0],[0],[0.9693638000171632],[None],123,0,123,0,171.3259088001214,,10,171.31920560006984,171.3259088001214,171.3259088001214,0.013881900114938617,172.28869960014708,[np.float64(-0.45925925925925926)],[np.float64(0.16111111111111112)],[1],[0],[0],[0.9693638000171632],[None],2,001,2025-09-30_15h43.14.632,Visual Search,,2025.1.1,59.810436764785926,2025-09-30 15h43.53.843031 +0530,
124,0,124,[np.float64(-0.49074074074074076)],[np.float64(0.1925925925925926)],[1],[0],[0],[1.0692642000503838],['target'],124,0,124,0,172.3096732001286,,10,172.3035661999602,172.3096732001286,172.3096732001286,0.014663599897176027,173.37293910002336,[np.float64(-0.49074074074074076)],[np.float64(0.1925925925925926)],[1],[0],[0],[1.0692642000503838],['target'],2,001,2025-09-30_15h43.14.632,Visual Search,,2025.1.1,59.810436764785926,2025-09-30 15h43.53.843031 +0530,
125,0,125,[np.float64(-0.225)],[np.float64(-0.16111111111111112)],[1],[0],[0],[1.6461620000191033],['target'],125,0,125,0,173.3956041999627,,10,173.38947260007262,173.3956041999627,173.3956041999627,0.015871600015088916,175.03578120004386,[np.float64(-0.225)],[np.float64(-0.16111111111111112)],[1],[0],[0],[1.6461620000191033],['target'],2,001,2025-09-30_15h43.14.632,Visual Search,,2025.1.1,59.810436764785926,2025-09-30 15h43.53.843031 +0530,
126,0,126,[np.float64(-0.3296296296296296)],[np.float64(-0.062037037037037036)],[1],[0],[0],[1.298153799958527],['target'],126,0,126,0,175.06035010004416,,10,175.05430250009522,175.06035010004416,175.06035010004416,0.018203699961304665,176.35258910013363,[np.float64(-0.3296296296296296)],[np.float64(-0.062037037037037036)],[1],[0],[0],[1.298153799958527],['target'],2,001,2025-09-30_15h43.14.632,Visual Search,,2025.1.1,59.810436764785926,2025-09-30 15h43.53.843031 +0530,
127,0,127,[np.float64(-0.1962962962962963)],[np.float64(0.1787037037037037)],[1],[0],[0],[1.2283759999554604],['target'],127,0,127,0,176.3667407000903,,5,176.36221279995516,176.3667407000903,176.3667407000903,0.009399200091138482,177.59070260007866,[np.float64(-0.1962962962962963)],[np.float64(0.1787037037037037)],[1],[0],[0],[1.2283759999554604],['target'],2,001,2025-09-30_15h43.14.632,Visual Search,,2025.1.1,59.810436764785926,2025-09-30 15h43.53.843031 +0530,
128,0,128,[np.float64(-0.30092592592592593)],[np.float64(-0.044444444444444446)],[1],[0],[0],[1.2313457001000643],['target'],128,0,128,0,177.61288919998333,,10,177.6061742999591,177.61288919998333,177.61288919998333,0.01528529985807836,178.8376102000475,[np.float64(-0.30092592592592593)],[np.float64(-0.044444444444444446)],[1],[0],[0],[1.2313457001000643],['target'],2,001,2025-09-30_15h43.14.632,Visual Search,,2025.1.1,59.810436764785926,2025-09-30 15h43.53.843031 +0530,
129,0,129,[np.float64(0.3398148148148148)],[np.float64(-0.001851851851851852)],[1],[0],[0],[1.255587900057435],['target'],129,0,129,0,178.85152110015042,,5,178.84627590002492,178.85152110015042,178.85152110015042,0.008444000035524368,180.10201200004667,[np.float64(0.3398148148148148)],[np.float64(-0.001851851851851852)],[1],[0],[0],[1.255587900057435],['target'],2,001,2025-09-30_15h43.14.632,Visual Search,,2025.1.1,59.810436764785926,2025-09-30 15h43.53.843031 +0530,
130,0,130,[np.float64(0.2712962962962963)],[np.float64(0.1037037037037037)],[1],[0],[0],[0.992203300120309],['target'],130,0,130,0,180.11771819996648,,5,180.11364730005153,180.11771819996648,180.11771819996648,0.011345600010827184,181.10596269997768,[np.float64(0.2712962962962963)],[np.float64(0.1037037037037037)],[1],[0],[0],[0.992203300120309],['target'],2,001,2025-09-30_15h43.14.632,Visual Search,,2025.1.1,59.810436764785926,2025-09-30 15h43.53.843031 +0530,
131,0,131,[np.float64(0.12962962962962962)],[np.float64(-0.26851851851851855)],[1],[0],[0],[1.7174545000307262],['target'],131,0,131,0,181.12800270016305,,10,181.1214441000484,181.12800270016305,181.12800270016305,0.01517020002938807,182.8390019000508,[np.float64(0.12962962962962962)],[np.float64(-0.26851851851851855)],[1],[0],[0],[1.7174545000307262],['target'],2,001,2025-09-30_15h43.14.632,Visual Search,,2025.1.1,59.810436764785926,2025-09-30 15h43.53.843031 +0530,
132,0,132,[np.float64(-0.14629629629629629)],[np.float64(0.3055555555555556)],[1],[0],[0],[1.2341634999029338],['target'],132,0,132,0,182.8618487000931,,10,182.85422420012765,182.8618487000931,182.8618487000931,0.015018299920484424,184.0884935001377,[np.float64(-0.14629629629629629)],[np.float64(0.3055555555555556)],[1],[0],[0],[1.2341634999029338],['target'],2,001,2025-09-30_15h43.14.632,Visual Search,,2025.1.1,59.810436764785926,2025-09-30 15h43.53.843031 +0530,
133,0,133,[np.float64(-0.49537037037037035)],[np.float64(-0.2222222222222222)],[1],[0],[0],[1.2883669000584632],['target'],133,0,133,0,184.10423510009423,,5,184.09932000003755,184.10423510009423,184.10423510009423,0.010596700012683868,185.38777730008587,[np.float64(-0.49537037037037035)],[np.float64(-0.2222222222222222)],[1],[0],[0],[1.2883669000584632],['target'],2,001,2025-09-30_15h43.14.632,Visual Search,,2025.1.1,59.810436764785926,2025-09-30 15h43.53.843031 +0530,
134,0,134,[np.float64(0.3101851851851852)],[np.float64(-0.10185185185185185)],[1],[0],[0],[1.3849402000196278],['target'],134,0,134,0,185.40979730011895,,10,185.4027678000275,185.40979730011895,185.40979730011895,0.01484330021776259,186.787794200005,[np.float64(0.3101851851851852)],[np.float64(-0.10185185185185185)],[1],[0],[0],[1.3849402000196278],['target'],2,001,2025-09-30_15h43.14.632,Visual Search,,2025.1.1,59.810436764785926,2025-09-30 15h43.53.843031 +0530,
135,0,135,[np.float64(0.35833333333333334)],[np.float64(0.4074074074074074)],[1],[0],[0],[1.456218000035733],['target'],135,0,135,0,186.8080536001362,,10,186.8016175001394,186.8080536001362,186.8080536001362,0.013666599988937378,188.2579533001408,[np.float64(0.35833333333333334)],[np.float64(0.4074074074074074)],[1],[0],[0],[1.456218000035733],['target'],2,001,2025-09-30_15h43.14.632,Visual Search,,2025.1.1,59.810436764785926,2025-09-30 15h43.53.843031 +0530,
136,0,136,[np.float64(-0.20185185185185187)],[np.float64(0.47129629629629627)],[1],[0],[0],[1.1191095998510718],['target'],136,0,136,0,188.27158459997736,,5,188.26698080007918,188.27158459997736,188.27158459997736,0.00880649988539517,189.38617089996114,[np.float64(-0.20185185185185187)],[np.float64(0.47129629629629627)],[1],[0],[0],[1.1191095998510718],['target'],2,001,2025-09-30_15h43.14.632,Visual Search,,2025.1.1,59.810436764785926,2025-09-30 15h43.53.843031 +0530,
137,0,137,[np.float64(0.44351851851851853)],[np.float64(0.3111111111111111)],[1],[0],[0],[1.2216867001261562],['target'],137,0,137,0,189.40616110013798,,10,189.39963330002502,189.40616110013798,189.40616110013798,0.01336099999025464,190.62141499994323,[np.float64(0.44351851851851853)],[np.float64(0.3111111111111111)],[1],[0],[0],[1.2216867001261562],['target'],2,001,2025-09-30_15h43.14.632,Visual Search,,2025.1.1,59.810436764785926,2025-09-30 15h43.53.843031 +0530,
138,0,138,[np.float64(-0.08425925925925926)],[np.float64(-0.41388888888888886)],[1],[0],[0],[1.5186751000583172],['target'],138,0,138,0,190.64345080009662,,10,190.637328900164,190.64345080009662,190.64345080009662,0.015720200026407838,192.1560780000873,[np.float64(-0.08425925925925926)],[np.float64(-0.41388888888888886)],[1],[0],[0],[1.5186751000583172],['target'],2,001,2025-09-30_15h43.14.632,Visual Search,,2025.1.1,59.810436764785926,2025-09-30 15h43.53.843031 +0530,
139,0,139,[np.float64(0.3333333333333333)],[np.float64(-0.35)],[1],[0],[0],[1.2562760000582784],['target'],139,0,139,0,192.16986250015907,,5,192.16483240015805,192.16986250015907,192.16986250015907,0.008591699879616499,193.42120490013622,[np.float64(0.3333333333333333)],[np.float64(-0.35)],[1],[0],[0],[1.2562760000582784],['target'],2,001,2025-09-30_15h43.14.632,Visual Search,,2025.1.1,59.810436764785926,2025-09-30 15h43.53.843031 +0530,
140,0,140,[np.float64(0.45)],[np.float64(0.42685185185185187)],[1],[0],[0],[1.2581854001618922],['target'],140,0,140,0,193.43403619993478,,5,193.4298161000479,193.43403619993478,193.43403619993478,0.008453499991446733,194.68808980006725,[np.float64(0.45)],[np.float64(0.42685185185185187)],[1],[0],[0],[1.2581854001618922],['target'],2,001,2025-09-30_15h43.14.632,Visual Search,,2025.1.1,59.810436764785926,2025-09-30 15h43.53.843031 +0530,
141,0,141,[np.float64(0.08055555555555556)],[np.float64(-0.4685185185185185)],[1],[0],[0],[1.7241851000580937],[None],141,0,141,0,194.70302970008925,,5,194.69856270006858,194.70302970008925,194.70302970008925,0.01030600001104176,196.4228517001029,[np.float64(0.08055555555555556)],[np.float64(-0.4685185185185185)],[1],[0],[0],[1.7241851000580937],[None],2,001,2025-09-30_15h43.14.632,Visual Search,,2025.1.1,59.810436764785926,2025-09-30 15h43.53.843031 +0530,
142,0,142,[np.float64(0.3527777777777778)],[np.float64(-0.013888888888888888)],[1],[0],[0],[1.324314699973911],[None],142,0,142,0,196.4360794001259,,5,196.43163460004143,196.4360794001259,196.4360794001259,0.008610500022768974,197.75604939996265,[np.float64(0.3527777777777778)],[np.float64(-0.013888888888888888)],[1],[0],[0],[1.324314699973911],[None],2,001,2025-09-30_15h43.14.632,Visual Search,,2025.1.1,59.810436764785926,2025-09-30 15h43.53.843031 +0530,
143,0,143,[np.float64(0.1648148148148148)],[np.float64(-0.15648148148148147)],[1],[0],[0],[1.2729613000992686],[None],143,0,143,0,197.76969860005192,,5,197.76474000001326,197.76969860005192,197.76969860005192,0.00853120000101626,199.0377915999852,[np.float64(0.1648148148148148)],[np.float64(-0.15648148148148147)],[1],[0],[0],[1.2729613000992686],[None],2,001,2025-09-30_15h43.14.632,Visual Search,,2025.1.1,59.810436764785926,2025-09-30 15h43.53.843031 +0530,
144,0,144,[np.float64(-0.1388888888888889)],[np.float64(0.1537037037037037)],[1],[0],[0],[1.2073788000270724],['target'],144,0,144,0,199.0520212999545,,5,199.0468560999725,199.0520212999545,199.0520212999545,0.008910399861633778,200.25431680004112,[np.float64(-0.1388888888888889)],[np.float64(0.1537037037037037)],[1],[0],[0],[1.2073788000270724],['target'],2,001,2025-09-30_15h43.14.632,Visual Search,,2025.1.1,59.810436764785926,2025-09-30 15h43.53.843031 +0530,
145,0,145,[np.float64(0.44814814814814813)],[np.float64(-0.1425925925925926)],[1],[0],[0],[1.1524622000288218],['target'],145,0,145,0,200.2754590001423,,10,200.26916280016303,200.2754590001423,200.2754590001423,0.014717499958351254,201.42173910001293,[np.float64(0.44814814814814813)],[np.float64(-0.1425925925925926)],[1],[0],[0],[1.1524622000288218],['target'],2,001,2025-09-30_15h43.14.632,Visual Search,,2025.1.1,59.810436764785926,2025-09-30 15h43.53.843031 +0530,
146,0,146,[np.float64(-0.06944444444444445)],[np.float64(-0.2574074074074074)],[1],[0],[0],[1.3234249998349696],['target'],146,0,146,0,201.43609520001337,,5,201.43201170000248,201.43609520001337,201.43609520001337,0.01005020015873015,202.75551689998247,[np.float64(-0.06944444444444445)],[np.float64(-0.2574074074074074)],[1],[0],[0],[1.3234249998349696],['target'],2,001,2025-09-30_15h43.14.632,Visual Search,,2025.1.1,59.810436764785926,2025-09-30 15h43.53.843031 +0530,
147,0,147,[np.float64(0.29074074074074074)],[np.float64(0.20555555555555555)],[1],[0],[0],[1.409636199939996],['target'],147,0,147,0,202.7679212000221,,5,202.76335899997503,202.7679212000221,202.7679212000221,0.007711600046604872,204.17312670010142,[np.float64(0.29074074074074074)],[np.float64(0.20555555555555555)],[1],[0],[0],[1.409636199939996],['target'],2,001,2025-09-30_15h43.14.632,Visual Search,,2025.1.1,59.810436764785926,2025-09-30 15h43.53.843031 +0530,
148,0,148,[np.float64(-0.04259259259259259)],[np.float64(-0.18981481481481483)],[1],[0],[0],[1.216359700076282],['target'],148,0,148,0,204.1961294999346,,10,204.1898670999799,204.1961294999346,204.1961294999346,0.016520399833098054,205.40633210004307,[np.float64(-0.04259259259259259)],[np.float64(-0.18981481481481483)],[1],[0],[0],[1.216359700076282],['target'],2,001,2025-09-30_15h43.14.632,Visual Search,,2025.1.1,59.810436764785926,2025-09-30 15h43.53.843031 +0530,
149,0,149,[np.float64(-0.02962962962962963)],[np.float64(0.017592592592592594)],[1],[0],[0],[1.1558733000420034],['target'],149,0,149,0,205.42080190009438,,5,205.4162337000016,205.42080190009438,205.42080190009438,0.00970719987526536,206.57221230003051,[np.float64(-0.02962962962962963)],[np.float64(0.017592592592592594)],[1],[0],[0],[1.1558733000420034],['target'],2,001,2025-09-30_15h43.14.632,Visual Search,,2025.1.1,59.810436764785926,2025-09-30 15h43.53.843031 +0530,
150,0,150,[np.float64(0.32314814814814813)],[np.float64(-0.3287037037037037)],[1],[0],[0],[1.5727752998936921],['target'],150,0,150,0,206.5860299000051,,5,206.5817587999627,206.5860299000051,206.5860299000051,0.009377899812534451,208.15461490000598,[np.float64(0.32314814814814813)],[np.float64(-0.3287037037037037)],[1],[0],[0],[1.5727752998936921],['target'],2,001,2025-09-30_15h43.14.632,Visual Search,,2025.1.1,59.810436764785926,2025-09-30 15h43.53.843031 +0530,
151,0,151,[np.float64(0.3)],[np.float64(-0.46111111111111114)],[1],[0],[0],[1.2572610001079738],['target'],151,0,151,0,208.16710710013285,,5,208.162529299967,208.16710710013285,208.16710710013285,0.007797100115567446,209.41991499997675,[np.float64(0.3)],[np.float64(-0.46111111111111114)],[1],[0],[0],[1.2572610001079738],['target'],2,001,2025-09-30_15h43.14.632,Visual Search,,2025.1.1,59.810436764785926,2025-09-30 15h43.53.843031 +0530,
152,0,152,[np.float64(0.09814814814814815)],[np.float64(0.22962962962962963)],[1],[0],[0],[1.4396889999043196],['target'],152,0,152,0,209.4364088999573,,5,209.43013690016232,209.4364088999573,209.4364088999573,0.010036499937996268,210.86990420008078,[np.float64(0.09814814814814815)],[np.float64(0.22962962962962963)],[1],[0],[0],[1.4396889999043196],['target'],2,001,2025-09-30_15h43.14.632,Visual Search,,2025.1.1,59.810436764785926,2025-09-30 15h43.53.843031 +0530,
153,0,153,[np.float64(0.03611111111111111)],[np.float64(0.40185185185185185)],[1],[0],[0],[1.2562284001614898],['target'],153,0,153,0,210.88332880008966,,5,210.87861680006608,210.88332880008966,210.88332880008966,0.008580799913033843,212.13497410016134,[np.float64(0.03611111111111111)],[np.float64(0.40185185185185185)],[1],[0],[0],[1.2562284001614898],['target'],2,001,2025-09-30_15h43.14.632,Visual Search,,2025.1.1,59.810436764785926,2025-09-30 15h43.53.843031 +0530,
154,0,154,[np.float64(-0.058333333333333334)],[np.float64(-0.49074074074074076)],[1],[0],[0],[1.5761124999262393],['target'],154,0,154,0,212.14994200016372,,5,212.14434570004232,212.14994200016372,212.14994200016372,0.009189000120386481,213.72053609997965,[np.float64(-0.058333333333333334)],[np.float64(-0.49074074074074076)],[1],[0],[0],[1.5761124999262393],['target'],2,001,2025-09-30_15h43.14.632,Visual Search,,2025.1.1,59.810436764785926,2025-09-30 15h43.53.843031 +0530,
155,0,155,[np.float64(-0.17222222222222222)],[np.float64(0.17962962962962964)],[1],[0],[0],[1.1550201000645757],['target'],155,0,155,0,213.73650420014746,,5,213.73177110007964,213.73650420014746,213.73650420014746,0.011111499974504113,214.88688420015387,[np.float64(-0.17222222222222222)],[np.float64(0.17962962962962964)],[1],[0],[0],[1.1550201000645757],['target'],2,001,2025-09-30_15h43.14.632,Visual Search,,2025.1.1,59.810436764785926,2025-09-30 15h43.53.843031 +0530,
156,0,156,[np.float64(0.22314814814814815)],[np.float64(-0.05925925925925926)],[1],[0],[0],[1.2748554998543113],[None],156,0,156,0,214.9010928000789,,5,214.89608890004456,214.9010928000789,214.9010928000789,0.009050499880686402,216.17103640013374,[np.float64(0.22314814814814815)],[np.float64(-0.05925925925925926)],[1],[0],[0],[1.2748554998543113],[None],2,001,2025-09-30_15h43.14.632,Visual Search,,2025.1.1,59.810436764785926,2025-09-30 15h43.53.843031 +0530,
157,0,157,[np.float64(0.18703703703703703)],[np.float64(-0.24259259259259258)],[1],[0],[0],[0.9868529001250863],[None],157,0,157,0,216.19358050008304,,10,216.18751520011574,216.19358050008304,216.19358050008304,0.016308899968862534,217.17448769998737,[np.float64(0.18703703703703703)],[np.float64(-0.24259259259259258)],[1],[0],[0],[0.9868529001250863],[None],2,001,2025-09-30_15h43.14.632,Visual Search,,2025.1.1,59.810436764785926,2025-09-30 15h43.53.843031 +0530,
158,0,158,[np.float64(-0.48518518518518516)],[np.float64(-0.041666666666666664)],[1],[0],[0],[1.2472137999720871],[None],158,0,158,0,217.1916308000218,,5,217.1873391000554,217.1916308000218,217.1916308000218,0.012612299993634224,218.4346547999885,[np.float64(-0.48518518518518516)],[np.float64(-0.041666666666666664)],[1],[0],[0],[1.2472137999720871],[None],2,001,2025-09-30_15h43.14.632,Visual Search,,2025.1.1,59.810436764785926,2025-09-30 15h43.53.843031 +0530,
159,0,159,[np.float64(0.2759259259259259)],[np.float64(0.32314814814814813)],[1],[0],[0],[1.2377308001741767],['target'],159,0,159,0,218.45132440002635,,5,218.44646600005217,218.45132440002635,218.45132440002635,0.011630000080913305,219.68433489999734,[np.float64(0.2759259259259259)],[np.float64(0.32314814814814813)],[1],[0],[0],[1.2377308001741767],['target'],2,001,2025-09-30_15h43.14.632,Visual Search,,2025.1.1,59.810436764785926,2025-09-30 15h43.53.843031 +0530,
160,0,160,[np.float64(0.2824074074074074)],[np.float64(0.17592592592592593)],[1],[0],[0],[1.1619753001723439],['target'],160,0,160,0,219.69973630015738,,5,219.6940516999457,219.69973630015738,219.69973630015738,0.009511600015684962,220.85612710006535,[np.float64(0.2824074074074074)],[np.float64(0.17592592592592593)],[1],[0],[0],[1.1619753001723439],['target'],2,001,2025-09-30_15h43.14.632,Visual Search,,2025.1.1,59.810436764785926,2025-09-30 15h43.53.843031 +0530,
161,0,161,[np.float64(0.08703703703703704)],[np.float64(-0.15185185185185185)],[1],[0],[0],[1.5138133000582457],['target'],161,0,161,0,220.88079690001905,,10,220.8747108001262,220.88079690001905,220.88079690001905,0.018427300034090877,222.38862550002523,[np.float64(0.08703703703703704)],[np.float64(-0.15185185185185185)],[1],[0],[0],[1.5138133000582457],['target'],2,001,2025-09-30_15h43.14.632,Visual Search,,2025.1.1,59.810436764785926,2025-09-30 15h43.53.843031 +0530,
162,0,162,[np.float64(0.17037037037037037)],[np.float64(-0.3453703703703704)],[1],[0],[0],[1.5577022000215948],['target'],162,0,162,0,222.40237569995224,,5,222.39766760007478,222.40237569995224,222.40237569995224,0.008851499995216727,223.955485700164,[np.float64(0.17037037037037037)],[np.float64(-0.3453703703703704)],[1],[0],[0],[1.5577022000215948],['target'],2,001,2025-09-30_15h43.14.632,Visual Search,,2025.1.1,59.810436764785926,2025-09-30 15h43.53.843031 +0530,
163,0,163,[np.float64(-0.07407407407407407)],[np.float64(-0.35462962962962963)],[1],[0],[0],[1.1031877999193966],['target'],163,0,163,0,223.97093580011278,,5,223.96628560009412,223.97093580011278,223.97093580011278,0.010403499938547611,225.06954660010524,[np.float64(-0.07407407407407407)],[np.float64(-0.35462962962962963)],[1],[0],[0],[1.1031877999193966],['target'],2,001,2025-09-30_15h43.14.632,Visual Search,,2025.1.1,59.810436764785926,2025-09-30 15h43.53.843031 +0530,
164,0,164,[np.float64(-0.2824074074074074)],[np.float64(0.16666666666666666)],[1],[0],[0],[1.28984019998461],['target'],164,0,164,0,225.08405639999546,,5,225.07936840015464,225.08405639999546,225.08405639999546,0.009694099891930819,226.3692801001016,[np.float64(-0.2824074074074074)],[np.float64(0.16666666666666666)],[1],[0],[0],[1.28984019998461],['target'],2,001,2025-09-30_15h43.14.632,Visual Search,,2025.1.1,59.810436764785926,2025-09-30 15h43.53.843031 +0530,
165,0,165,[np.float64(-0.2657407407407407)],[np.float64(-0.41388888888888886)],[1],[0],[0],[1.3474712998140603],['target'],165,0,165,0,226.38299060007557,,5,226.37655759998597,226.38299060007557,226.38299060007557,0.007167200092226267,227.72420900012366,[np.float64(-0.2657407407407407)],[np.float64(-0.41388888888888886)],[1],[0],[0],[1.3474712998140603],['target'],2,001,2025-09-30_15h43.14.632,Visual Search,,2025.1.1,59.810436764785926,2025-09-30 15h43.53.843031 +0530,
166,0,166,[np.float64(0.5064814814814815)],[np.float64(-0.24259259259259258)],[1],[0],[0],[1.4127430999651551],['target'],166,0,166,0,227.74918700009584,,10,227.74255560012534,227.74918700009584,227.74918700009584,0.018166899913921952,229.15544990007766,[np.float64(0.5064814814814815)],[np.float64(-0.24259259259259258)],[1],[0],[0],[1.4127430999651551],['target'],2,001,2025-09-30_15h43.14.632,Visual Search,,2025.1.1,59.810436764785926,2025-09-30 15h43.53.843031 +0530,
167,0,167,[np.float64(0.14166666666666666)],[np.float64(0.21203703703703702)],[1],[0],[0],[1.2409747999627143],['target'],167,0,167,0,229.16834350000136,,5,229.16419879999012,229.16834350000136,229.16834350000136,0.008529699873179197,230.40526470006444,[np.float64(0.14166666666666666)],[np.float64(0.21203703703703702)],[1],[0],[0],[1.2409747999627143],['target'],2,001,2025-09-30_15h43.14.632,Visual Search,,2025.1.1,59.810436764785926,2025-09-30 15h43.53.843031 +0530,
168,0,168,[np.float64(-0.2916666666666667)],[np.float64(0.5)],[1],[0],[0],[1.2390410001389682],['target'],168,0,168,0,230.4195235001389,,5,230.41492959996685,230.4195235001389,230.4195235001389,0.009509800001978874,231.6540516000241,[np.float64(-0.2916666666666667)],[np.float64(0.5)],[1],[0],[0],[1.2390410001389682],['target'],2,001,2025-09-30_15h43.14.632,Visual Search,,2025.1.1,59.810436764785926,2025-09-30 15h43.53.843031 +0530,
169,0,169,[np.float64(-0.3101851851851852)],[np.float64(0.2657407407407407)],[1],[0],[0],[1.2869599999394268],['target'],169,0,169,0,231.6758382001426,,10,231.66863460000604,231.6758382001426,231.6758382001426,0.014457799959927797,232.95569380000234,[np.float64(-0.3101851851851852)],[np.float64(0.2657407407407407)],[1],[0],[0],[1.2869599999394268],['target'],2,001,2025-09-30_15h43.14.632,Visual Search,,2025.1.1,59.810436764785926,2025-09-30 15h43.53.843031 +0530,
170,0,170,[np.float64(0.2814814814814815)],[np.float64(0.3787037037037037)],[1],[0],[0],[1.2539480000268668],['target'],170,0,170,0,232.97153130010702,,5,232.96694740001112,232.97153130010702,232.97153130010702,0.011078799841925502,234.22097599995323,[np.float64(0.2814814814814815)],[np.float64(0.3787037037037037)],[1],[0],[0],[1.2539480000268668],['target'],2,001,2025-09-30_15h43.14.632,Visual Search,,2025.1.1,59.810436764785926,2025-09-30 15h43.53.843031 +0530,
171,0,171,[np.float64(-0.39537037037037037)],[np.float64(-0.022222222222222223)],[1],[0],[0],[1.3538128999061882],['target'],171,0,171,0,234.23722960008308,,5,234.23305279994383,234.23722960008308,234.23722960008308,0.011945899808779359,235.58694640011527,[np.float64(-0.39537037037037037)],[np.float64(-0.022222222222222223)],[1],[0],[0],[1.3538128999061882],['target'],2,001,2025-09-30_15h43.14.632,Visual Search,,2025.1.1,59.810436764785926,2025-09-30 15h43.53.843031 +0530,
172,0,172,[np.float64(-0.25925925925925924)],[np.float64(-0.037037037037037035)],[1],[0],[0],[1.3510052000638098],['target'],172,0,172,0,235.60988480015658,,10,235.6031229000073,235.60988480015658,235.60988480015658,0.016042500035837293,236.954208600102,[np.float64(-0.25925925925925924)],[np.float64(-0.037037037037037035)],[1],[0],[0],[1.3510052000638098],['target'],2,001,2025-09-30_15h43.14.632,Visual Search,,2025.1.1,59.810436764785926,2025-09-30 15h43.53.843031 +0530,
173,0,173,[np.float64(0.1111111111111111)],[np.float64(-0.2916666666666667)],[1],[0],[0],[1.1689971000887454],['target'],173,0,173,0,236.9747838000767,,10,236.96857469994575,236.9747838000767,236.9747838000767,0.014217300107702613,238.1376629001461,[np.float64(0.1111111111111111)],[np.float64(-0.2916666666666667)],[1],[0],[0],[1.1689971000887454],['target'],2,001,2025-09-30_15h43.14.632,Visual Search,,2025.1.1,59.810436764785926,2025-09-30 15h43.53.843031 +0530,
174,0,174,[np.float64(-0.018518518518518517)],[np.float64(-0.16018518518518518)],[1],[0],[0],[1.192582700168714],['target'],174,0,174,0,238.15052030002698,,5,238.1462902999483,238.15052030002698,238.15052030002698,0.008447399828583002,239.33898800006136,[np.float64(-0.018518518518518517)],[np.float64(-0.16018518518518518)],[1],[0],[0],[1.192582700168714],['target'],2,001,2025-09-30_15h43.14.632,Visual Search,,2025.1.1,59.810436764785926,2025-09-30 15h43.53.843031 +0530,
175,0,175,[np.float64(-0.18333333333333332)],[np.float64(-0.48055555555555557)],[1],[0],[0],[1.8586468999274075],['target'],175,0,175,0,239.3528481000103,,5,239.3486645000521,239.3528481000103,239.3528481000103,0.009492999874055386,241.20741700008512,[np.float64(-0.18333333333333332)],[np.float64(-0.48055555555555557)],[1],[0],[0],[1.8586468999274075],['target'],2,001,2025-09-30_15h43.14.632,Visual Search,,2025.1.1,59.810436764785926,2025-09-30 15h43.53.843031 +0530,
176,0,176,[np.float64(0.32222222222222224)],[np.float64(0.38333333333333336)],[1],[0],[0],[1.9488818000536412],['target'],176,0,176,0,241.22933620004915,,10,241.22275620000437,241.22933620004915,241.22933620004915,0.015169500140473247,243.1717481999658,[np.float64(0.32222222222222224)],[np.float64(0.38333333333333336)],[1],[0],[0],[1.9488818000536412],['target'],2,001,2025-09-30_15h43.14.632,Visual Search,,2025.1.1,59.810436764785926,2025-09-30 15h43.53.843031 +0530,
177,0,177,[np.float64(0.0712962962962963)],[np.float64(0.14444444444444443)],[1],[0],[0],[1.3417387998197228],['target'],177,0,177,0,243.18581270007417,,5,243.18141110008582,243.18581270007417,243.18581270007417,0.009441999951377511,244.5232758000493,[np.float64(0.0712962962962963)],[np.float64(0.14444444444444443)],[1],[0],[0],[1.3417387998197228],['target'],2,001,2025-09-30_15h43.14.632,Visual Search,,2025.1.1,59.810436764785926,2025-09-30 15h43.53.843031 +0530,
178,0,178,[np.float64(0.1)],[np.float64(0.44907407407407407)],[1],[0],[0],[1.5710608998779207],['target'],178,0,178,0,244.53715829993598,,5,244.53233730001375,244.53715829993598,244.53715829993598,0.008884600130841136,246.1034850999713,[np.float64(0.1)],[np.float64(0.44907407407407407)],[1],[0],[0],[1.5710608998779207],['target'],2,001,2025-09-30_15h43.14.632,Visual Search,,2025.1.1,59.810436764785926,2025-09-30 15h43.53.843031 +0530,
179,0,179,[np.float64(0.35833333333333334)],[np.float64(-0.3138888888888889)],[1],[0],[0],[1.984938899986446],[None],179,0,179,0,246.12531349994242,,10,246.11896520014852,246.12531349994242,246.12531349994242,0.015330499969422817,248.10399500001222,[np.float64(0.35833333333333334)],[np.float64(-0.3138888888888889)],[1],[0],[0],[1.984938899986446],[None],2,001,2025-09-30_15h43.14.632,Visual Search,,2025.1.1,59.810436764785926,2025-09-30 15h43.53.843031 +0530,
180,0,180,[np.float64(0.22962962962962963)],[np.float64(0.2759259259259259)],[1],[0],[0],[1.4360730000771582],['target'],180,0,180,0,248.12500949995592,,10,248.11869190004654,248.12500949995592,248.12500949995592,0.014516800176352262,249.55487750004977,[np.float64(0.22962962962962963)],[np.float64(0.2759259259259259)],[1],[0],[0],[1.4360730000771582],['target'],2,001,2025-09-30_15h43.14.632,Visual Search,,2025.1.1,59.810436764785926,2025-09-30 15h43.53.843031 +0530,
181,0,181,[np.float64(0.2212962962962963)],[np.float64(-0.4388888888888889)],[1],[0],[0],[1.4402447000611573],['target'],181,0,181,0,249.5692078000866,,5,249.5650686000008,249.5692078000866,249.5692078000866,0.009969400009140372,251.00540979998186,[np.float64(0.2212962962962963)],[np.float64(-0.4388888888888889)],[1],[0],[0],[1.4402447000611573],['target'],2,001,2025-09-30_15h43.14.632,Visual Search,,2025.1.1,59.810436764785926,2025-09-30 15h43.53.843031 +0530,
182,0,182,[np.float64(-0.10277777777777777)],[np.float64(0.37592592592592594)],[1],[0],[0],[1.4349909001030028],['target'],182,0,182,0,251.01970820012502,,5,251.01542380009778,251.01970820012502,251.01970820012502,0.009848900139331818,252.45051070000045,[np.float64(-0.10277777777777777)],[np.float64(0.37592592592592594)],[1],[0],[0],[1.4349909001030028],['target'],2,001,2025-09-30_15h43.14.632,Visual Search,,2025.1.1,59.810436764785926,2025-09-30 15h43.53.843031 +0530,
183,0,183,[np.float64(-0.21481481481481482)],[np.float64(-0.29444444444444445)],[1],[0],[0],[1.5038569001480937],['target'],183,0,183,0,252.4725732000079,,10,252.46669279993512,252.4725732000079,252.4725732000079,0.016021099872887135,253.97065849998035,[np.float64(-0.21481481481481482)],[np.float64(-0.29444444444444445)],[1],[0],[0],[1.5038569001480937],['target'],2,001,2025-09-30_15h43.14.632,Visual Search,,2025.1.1,59.810436764785926,2025-09-30 15h43.53.843031 +0530,
184,0,184,[np.float64(0.09351851851851851)],[np.float64(0.008333333333333333)],[1],[0],[0],[1.1728196998592466],['target'],184,0,184,0,253.98563390015624,,5,253.98132330016233,253.98563390015624,253.98563390015624,0.010457499884068966,255.1542287999764,[np.float64(0.09351851851851851)],[np.float64(0.008333333333333333)],[1],[0],[0],[1.1728196998592466],['target'],2,001,2025-09-30_15h43.14.632,Visual Search,,2025.1.1,59.810436764785926,2025-09-30 15h43.53.843031 +0530,
185,0,185,[np.float64(0.002777777777777778)],[np.float64(-0.33240740740740743)],[1],[0],[0],[1.1744075000751764],['target'],185,0,185,0,255.16824289993383,,5,255.16360140009783,255.16824289993383,255.16824289993383,0.00923309987410903,256.3381074999925,[np.float64(0.002777777777777778)],[np.float64(-0.33240740740740743)],[1],[0],[0],[1.1744075000751764],['target'],2,001,2025-09-30_15h43.14.632,Visual Search,,2025.1.1,59.810436764785926,2025-09-30 15h43.53.843031 +0530,
186,0,186,[np.float64(0.46574074074074073)],[np.float64(-0.36018518518518516)],[1],[0],[0],[1.383798799943179],['target'],186,0,186,0,256.3604860000778,,10,256.3540447000414,256.3604860000778,256.3604860000778,0.015770799946039915,257.7379473000765,[np.float64(0.46574074074074073)],[np.float64(-0.36018518518518516)],[1],[0],[0],[1.383798799943179],['target'],2,001,2025-09-30_15h43.14.632,Visual Search,,2025.1.1,59.810436764785926,2025-09-30 15h43.53.843031 +0530,
187,0,187,[np.float64(0.10833333333333334)],[np.float64(-0.26666666666666666)],[1],[0],[0],[1.3344863001257181],[None],187,0,187,0,257.75435469998047,,5,257.7503249000292,257.75435469998047,257.75435469998047,0.01216710009612143,259.08495289995335,[np.float64(0.10833333333333334)],[np.float64(-0.26666666666666666)],[1],[0],[0],[1.3344863001257181],[None],2,001,2025-09-30_15h43.14.632,Visual Search,,2025.1.1,59.810436764785926,2025-09-30 15h43.53.843031 +0530,
188,0,188,[np.float64(0.023148148148148147)],[np.float64(0.1287037037037037)],[1],[0],[0],[1.0706231999211013],['target'],188,0,188,0,259.10133860004134,,5,259.0966316999402,259.10133860004134,259.10133860004134,0.011391400126740336,260.1673592000734,[np.float64(0.023148148148148147)],[np.float64(0.1287037037037037)],[1],[0],[0],[1.0706231999211013],['target'],2,001,2025-09-30_15h43.14.632,Visual Search,,2025.1.1,59.810436764785926,2025-09-30 15h43.53.843031 +0530,
189,0,189,[np.float64(0.09537037037037037)],[np.float64(0.037037037037037035)],[1],[0],[0],[1.071235400158912],['target'],189,0,189,0,260.1882750999648,,10,260.18221949995495,260.1882750999648,260.1882750999648,0.014665699796751142,261.2535409000702,[np.float64(0.09537037037037037)],[np.float64(0.037037037037037035)],[1],[0],[0],[1.071235400158912],['target'],2,001,2025-09-30_15h43.14.632,Visual Search,,2025.1.1,59.810436764785926,2025-09-30 15h43.53.843031 +0530,
190,0,190,[np.float64(-0.3425925925925926)],[np.float64(-0.2601851851851852)],[1],[0],[0],[1.2341789999045432],['target'],190,0,190,0,261.27608030010015,,10,261.2701618000865,261.27608030010015,261.27608030010015,0.016456000041216612,262.5044374000281,[np.float64(-0.3425925925925926)],[np.float64(-0.2601851851851852)],[1],[0],[0],[1.2341789999045432],['target'],2,001,2025-09-30_15h43.14.632,Visual Search,,2025.1.1,59.810436764785926,2025-09-30 15h43.53.843031 +0530,
191,0,191,[np.float64(0.1962962962962963)],[np.float64(-0.325)],[1],[0],[0],[1.207064799964428],[None],191,0,191,0,262.5190379000269,,5,262.5146254999563,262.5190379000269,262.5190379000269,0.009885000064969063,263.7217989000492,[np.float64(0.1962962962962963)],[np.float64(-0.325)],[1],[0],[0],[1.207064799964428],[None],2,001,2025-09-30_15h43.14.632,Visual Search,,2025.1.1,59.810436764785926,2025-09-30 15h43.53.843031 +0530,
192,0,192,[np.float64(0.21296296296296297)],[np.float64(-0.04814814814814815)],[1],[0],[0],[1.2908354999963194],['target'],192,0,192,0,263.7346721999347,,5,263.7296577000525,263.7346721999347,263.7346721999347,0.007712200051173568,265.02059970004484,[np.float64(0.21296296296296297)],[np.float64(-0.04814814814814815)],[1],[0],[0],[1.2908354999963194],['target'],2,001,2025-09-30_15h43.14.632,Visual Search,,2025.1.1,59.810436764785926,2025-09-30 15h43.53.843031 +0530,
193,0,193,[np.float64(0.19814814814814816)],[np.float64(0.425)],[1],[0],[0],[1.4306465000845492],['target'],193,0,193,0,265.0427129000891,,10,265.0366815000307,265.0427129000891,265.0427129000891,0.015912899980321527,266.46751939994283,[np.float64(0.19814814814814816)],[np.float64(0.425)],[1],[0],[0],[1.4306465000845492],['target'],2,001,2025-09-30_15h43.14.632,Visual Search,,2025.1.1,59.810436764785926,2025-09-30 15h43.53.843031 +0530,
194,0,194,[np.float64(-0.11481481481481481)],[np.float64(0.13240740740740742)],[1],[0],[0],[1.3993313000537455],['target'],194,0,194,0,266.4909244000446,,10,266.4848124999553,266.4909244000446,266.4909244000446,0.016999599989503622,267.8842488001101,[np.float64(-0.11481481481481481)],[np.float64(0.13240740740740742)],[1],[0],[0],[1.3993313000537455],['target'],2,001,2025-09-30_15h43.14.632,Visual Search,,2025.1.1,59.810436764785926,2025-09-30 15h43.53.843031 +0530,
195,0,195,[np.float64(0.18425925925925926)],[np.float64(0.24074074074074073)],[1],[0],[0],[1.4816205999813974],['target'],195,0,195,0,267.9091765000485,,10,267.90266470005736,267.9091765000485,267.9091765000485,0.018223300110548735,269.38440410001203,[np.float64(0.18425925925925926)],[np.float64(0.24074074074074073)],[1],[0],[0],[1.4816205999813974],['target'],2,001,2025-09-30_15h43.14.632,Visual Search,,2025.1.1,59.810436764785926,2025-09-30 15h43.53.843031 +0530,
196,0,196,[np.float64(-0.4203703703703704)],[np.float64(0.04722222222222222)],[1],[0],[0],[1.2012892998754978],['target'],196,0,196,0,269.4078262001276,,10,269.4013855000958,269.4078262001276,269.4078262001276,0.016751499846577644,270.6027466999367,[np.float64(-0.4203703703703704)],[np.float64(0.04722222222222222)],[1],[0],[0],[1.2012892998754978],['target'],2,001,2025-09-30_15h43.14.632,Visual Search,,2025.1.1,59.810436764785926,2025-09-30 15h43.53.843031 +0530,
197,0,197,[np.float64(0.08796296296296297)],[np.float64(0.38333333333333336)],[1],[0],[0],[1.1845062000211328],['target'],197,0,197,0,270.62658610008657,,10,270.61987890000455,270.62658610008657,270.62658610008657,0.016981499968096614,271.8044988999609,[np.float64(0.08796296296296297)],[np.float64(0.38333333333333336)],[1],[0],[0],[1.1845062000211328],['target'],2,001,2025-09-30_15h43.14.632,Visual Search,,2025.1.1,59.810436764785926,2025-09-30 15h43.53.843031 +0530,
198,0,198,[np.float64(-0.46944444444444444)],[np.float64(-0.2935185185185185)],[1],[0],[0],[1.4489066998939961],['target'],198,0,198,0,271.8276194999926,,10,271.820785399992,271.8276194999926,271.8276194999926,0.016061499947682023,273.2697523001116,[np.float64(-0.46944444444444444)],[np.float64(-0.2935185185185185)],[1],[0],[0],[1.4489066998939961],['target'],2,001,2025-09-30_15h43.14.632,Visual Search,,2025.1.1,59.810436764785926,2025-09-30 15h43.53.843031 +0530,
199,0,199,[np.float64(0.16944444444444445)],[np.float64(-0.27685185185185185)],[1],[0],[0],[1.2182163998950273],['target'],199,0,199,0,273.2899081001524,,10,273.2831628001295,273.2899081001524,273.2899081001524,0.01329770009033382,274.50154289999045,[np.float64(0.16944444444444445)],[np.float64(-0.27685185185185185)],[1],[0],[0],[1.2182163998950273],['target'],2,001,2025-09-30_15h43.14.632,Visual Search,,2025.1.1,59.810436764785926,2025-09-30 15h43.53.843031 +0530,
