pos,corr_resp,thisN,thisTrialN,thisRepN,kev_resp.kevs,kev_resp.corr,kev_resp.rt,kev_resp.duration,trials.thisRepN,trials.thisTrialN,trials.thisN,trials.thisIndex,trials_2.thisRepN,trials_2.thisTrialN,trials_2.thisN,trials_2.thisIndex,thisRow.t,notes,trial.started,Fixation.started,line1.started,line2.started,line3.started,line4.started,Fixation.stopped,probe.started,kev_resp.started,trial.stopped,trials.kev_resp.kevs,trials.kev_resp.corr,trials.kev_resp.rt,trials.kev_resp.duration,trials_2.kev_resp.kevs,trials_2.kev_resp.corr,trials_2.kev_resp.rt,trials_2.kev_resp.duration,participant,session,date,expName,expVersion,psvchopvVersion,frameRate,expStart
-50,x,0,0,0,v,0,1.2341275,None,0,0,0,0,,,,,0.0334722,,0.0252863,0.0334722,1.001348,1.001348,1.001348,1.001348,1.034482,2.0001037,2.0001037,3.2517226,v,0,1.2341275,None,,,,,3,1,2025-10-03_16h12.56.243,Motor Sequence,,2025.1.1,60.58755386,2025-10-03 16h13.02.580018 +0530
150,v,1,1,0,z,0,0.8892942,None,0,1,1,1,,,,,3.2670124,,3.2519695,3.2670124,4.2520458,4.2520458,4.2520458,4.2520458,4.267723,5.2510587,5.2510587,6.1541824,z,0,0.8892942,None,,,,,3,1,2025-10-03_16h12.56.243,Motor Sequence,,2025.1.1,60.58755386,2025-10-03 16h13.02.580018 +0530
50,c,2,2,0,c,1,1.5819057,None,0,2,2,2,,,,,6.1683888,,6.1544851,6.1683888,7.1672014,7.1672014,7.1672014,7.1672014,7.1672014,8.1681466,8.1681466,9.7550517,c,1,1.5819057,None,,,,,3,1,2025-10-03_16h12.56.243,Motor Sequence,,2025.1.1,60.58755386,2025-10-03 16h13.02.580018 +0530
-150,z,3,3,0,x,0,0.7606524,None,0,3,3,3,,,,,9.7680721,,9.7553268,9.7680721,10.76753,10.76753,10.76753,10.76753,10.76753,11.7680078,11.7680078,12.5379299,x,0,0.7606524,None,,,,,3,1,2025-10-03_16h12.56.243,Motor Sequence,,2025.1.1,60.58755386,2025-10-03 16h13.02.580018 +0530
-50,x,4,0,1,v,0,0.7848637,None,1,0,4,0,,,,,12.5518866,,12.5382272,12.5518866,13.5502643,13.5502643,13.5502643,13.5502643,13.5666572,14.5509599,14.5509599,15.3393861,v,0,0.7848637,None,,,,,3,1,2025-10-03_16h12.56.243,Motor Sequence,,2025.1.1,60.58755386,2025-10-03 16h13.02.580018 +0530
150,v,5,1,1,z,0,1.7651088,None,1,1,5,1,,,,,15.3508961,,15.3397198,15.3508961,16.3511483,16.3511483,16.3511483,16.3511483,16.3511483,17.3511952,17.3511952,19.1215423,z,0,1.7651088,None,,,,,3,1,2025-10-03_16h12.56.243,Motor Sequence,,2025.1.1,60.58755386,2025-10-03 16h13.02.580018 +0530
50,c,6,2,1,c,1,0.2919259,None,1,2,6,2,,,,,19.1343593,,19.1218573,19.1343593,20.1344141,20.1344141,20.1344141,20.1344141,20.1344141,21.1340259,21.1340259,21.4378292,c,1,0.2919259,None,,,,,3,1,2025-10-03_16h12.56.243,Motor Sequence,,2025.1.1,60.58755386,2025-10-03 16h13.02.580018 +0530
-150,z,7,3,1,x,0,0.2980111,None,1,3,7,3,,,,,21.4511969,,21.4381504,21.4511969,22.4512943,22.4512943,22.4512943,22.4512943,22.4512943,23.4512436,23.4512436,23.7561898,x,0,0.2980111,None,,,,,3,1,2025-10-03_16h12.56.243,Motor Sequence,,2025.1.1,60.58755386,2025-10-03 16h13.02.580018 +0530
-50,x,8,0,2,v,0,0.4276263,None,2,0,8,0,,,,,23.7677681,,23.756496,23.7677681,24.7691183,24.7691183,24.7691183,24.7691183,24.7691183,25.7677836,25.7677836,26.2050024,v,0,0.4276263,None,,,,,3,1,2025-10-03_16h12.56.243,Motor Sequence,,2025.1.1,60.58755386,2025-10-03 16h13.02.580018 +0530
150,v,9,1,2,z,0,2.0443714,None,2,1,9,1,,,,,26.2182275,,26.2053039,26.2182275,27.2174932,27.2174932,27.2174932,27.2174932,27.2174932,28.2180937,28.2180937,30.2707176,z,0,2.0443714,None,,,,,3,1,2025-10-03_16h12.56.243,Motor Sequence,,2025.1.1,60.58755386,2025-10-03 16h13.02.580018 +0530
50,c,10,2,2,c,1,0.3286888,None,2,2,10,2,,,,,30.2843684,,30.27103,30.2843684,31.2834939,31.2834939,31.2834939,31.2834939,31.2834939,32.2840151,32.2840151,32.6205911,c,1,0.3286888,None,,,,,3,1,2025-10-03_16h12.56.243,Motor Sequence,,2025.1.1,60.58755386,2025-10-03 16h13.02.580018 +0530
-150,z,11,3,2,x,0,0.2901035,None,2,3,11,3,,,,,32.6352828,,32.620918,32.6352828,33.633939,33.633939,33.633939,33.633939,33.633939,34.6341322,34.6341322,34.9380541,x,0,0.2901035,None,,,,,3,1,2025-10-03_16h12.56.243,Motor Sequence,,2025.1.1,60.58755386,2025-10-03 16h13.02.580018 +0530
-50,x,12,0,3,v,0,0.4506599,None,3,0,12,0,,,,,34.9514218,,34.9383909,34.9514218,35.9504334,35.9504334,35.9504334,35.9504334,35.9504334,36.9510554,36.9510554,37.4049092,v,0,0.4506599,None,,,,,3,1,2025-10-03_16h12.56.243,Motor Sequence,,2025.1.1,60.58755386,2025-10-03 16h13.02.580018 +0530
150,v,13,1,3,z,0,2.2079242,None,3,1,13,1,,,,,37.4177923,,37.405212,37.4177923,38.4182816,38.4182816,38.4182816,38.4182816,38.4182816,39.4177949,39.4177949,41.6347767,z,0,2.2079242,None,,,,,3,1,2025-10-03_16h12.56.243,Motor Sequence,,2025.1.1,60.58755386,2025-10-03 16h13.02.580018 +0530
50,c,14,2,3,c,1,0.3286806,None,3,2,14,2,,,,,41.6504985,,41.6349746,41.6504985,42.6343006,42.6343006,42.6343006,42.6343006,42.6506311,43.6342499,43.6342499,43.9706043,c,1,0.3286806,None,,,,,3,1,2025-10-03_16h12.56.243,Motor Sequence,,2025.1.1,60.58755386,2025-10-03 16h13.02.580018 +0530
-150,z,15,3,3,x,0,0.2978931,None,3,3,15,3,,,,,43.9849408,,43.9709038,43.9849408,44.9832643,44.9832643,44.9832643,44.9832643,44.999348,45.984405,45.984405,46.2866968,x,0,0.2978931,None,,,,,3,1,2025-10-03_16h12.56.243,Motor Sequence,,2025.1.1,60.58755386,2025-10-03 16h13.02.580018 +0530
-50,x,16,0,4,v,0,0.2595397,None,4,0,16,0,,,,,46.3008016,,46.2869773,46.3008016,47.3007985,47.3007985,47.3007985,47.3007985,47.3007985,48.3005585,48.3005585,48.5717329,v,0,0.2595397,None,,,,,3,1,2025-10-03_16h12.56.243,Motor Sequence,,2025.1.1,60.58755386,2025-10-03 16h13.02.580018 +0530
150,v,17,1,4,z,0,0.3015672,None,4,1,17,1,,,,,48.5850884,,48.5721054,48.5850884,49.5838536,49.5838536,49.5838536,49.5838536,49.5838536,50.5842764,50.5842764,50.8888625,z,0,0.3015672,None,,,,,3,1,2025-10-03_16h12.56.243,Motor Sequence,,2025.1.1,60.58755386,2025-10-03 16h13.02.580018 +0530
50,c,18,2,4,c,1,0.3876919,None,4,2,18,2,,,,,50.9011165,,50.8892023,50.9011165,51.900549,51.900549,51.900549,51.900549,51.900549,52.9006142,52.9006142,53.2894415,c,1,0.3876919,None,,,,,3,1,2025-10-03_16h12.56.243,Motor Sequence,,2025.1.1,60.58755386,2025-10-03 16h13.02.580018 +0530
-150,z,19,3,4,x,0,0.3537301,None,4,3,19,3,,,,,53.3008435,,53.2897653,53.3008435,54.3003121,54.3003121,54.3003121,54.3003121,54.3003121,55.3006817,55.3006817,55.6704226,x,0,0.3537301,None,,,,,3,1,2025-10-03_16h12.56.243,Motor Sequence,,2025.1.1,60.58755386,2025-10-03 16h13.02.580018 +0530
-50,x,20,0,5,v,0,0.2840107,None,5,0,20,0,,,,,55.6840298,,55.6707003,55.6840298,56.6847688,56.6847688,56.6847688,56.6847688,56.6847688,57.6823448,57.6823448,57.9691835,v,0,0.2840107,None,,,,,3,1,2025-10-03_16h12.56.243,Motor Sequence,,2025.1.1,60.58755386,2025-10-03 16h13.02.580018 +0530
150,v,21,1,5,z,0,0.6504,None,5,1,21,1,,,,,57.9828016,,57.9694755,57.9828016,58.9824423,58.9824423,58.9824423,58.9824423,58.9824423,59.9830408,59.9830408,60.635519,z,0,0.6504,None,,,,,3,1,2025-10-03_16h12.56.243,Motor Sequence,,2025.1.1,60.58755386,2025-10-03 16h13.02.580018 +0530
50,c,22,2,5,c,1,0.2326145,None,5,2,22,2,,,,,60.6494757,,60.6357825,60.6494757,61.6499083,61.6499083,61.6499083,61.6499083,61.6499083,62.6492718,62.6492718,62.886909,c,1,0.2326145,None,,,,,3,1,2025-10-03_16h12.56.243,Motor Sequence,,2025.1.1,60.58755386,2025-10-03 16h13.02.580018 +0530
-150,z,23,3,5,x,0,0.1446028,None,5,3,23,3,,,,,62.9002108,,62.8871981,62.9002108,63.900324,63.900324,63.900324,63.900324,63.900324,64.9003838,64.9003838,65.0542475,x,0,0.1446028,None,,,,,3,1,2025-10-03_16h12.56.243,Motor Sequence,,2025.1.1,60.58755386,2025-10-03 16h13.02.580018 +0530
-50,x,24,0,6,v,0,0.2552968,None,6,0,24,0,,,,,65.0677008,,65.0545845,65.0677008,66.066767,66.066767,66.066767,66.066767,66.066767,67.0669006,67.0669006,67.3352828,v,0,0.2552968,None,,,,,3,1,2025-10-03_16h12.56.243,Motor Sequence,,2025.1.1,60.58755386,2025-10-03 16h13.02.580018 +0530
150,v,25,1,6,z,0,0.2718057,None,6,1,25,1,,,,,67.3503225,,67.3355176,67.3503225,68.3343102,68.3343102,68.3343102,68.3343102,68.3503211,69.3341269,69.3341269,69.6198771,z,0,0.2718057,None,,,,,3,1,2025-10-03_16h12.56.243,Motor Sequence,,2025.1.1,60.58755386,2025-10-03 16h13.02.580018 +0530
50,c,26,2,6,c,1,1.1280547,None,6,2,26,2,,,,,69.6344676,,69.6201614,69.6344676,70.6349281,70.6349281,70.6349281,70.6349281,70.6349281,71.6336923,71.6336923,72.7706503,c,1,1.1280547,None,,,,,3,1,2025-10-03_16h12.56.243,Motor Sequence,,2025.1.1,60.58755386,2025-10-03 16h13.02.580018 +0530
-150,z,27,3,6,x,0,0.6802561,None,6,3,27,3,,,,,72.7839514,,72.7710112,72.7839514,73.7832829,73.7832829,73.7832829,73.7832829,73.7989028,74.784066,74.784066,75.4711754,x,0,0.6802561,None,,,,,3,1,2025-10-03_16h12.56.243,Motor Sequence,,2025.1.1,60.58755386,2025-10-03 16h13.02.580018 +0530
-50,x,28,0,7,v,0,0.2746857,None,7,0,28,0,,,,,75.4842603,,75.4715718,75.4842603,76.4841549,76.4841549,76.4841549,76.4841549,76.4841549,77.4826902,77.4826902,77.7705914,v,0,0.2746857,None,,,,,3,1,2025-10-03_16h12.56.243,Motor Sequence,,2025.1.1,60.58755386,2025-10-03 16h13.02.580018 +0530
150,v,29,1,7,z,0,0.3175504,None,7,1,29,1,,,,,77.7841846,,77.770853,77.7841846,78.783773,78.783773,78.783773,78.783773,78.783773,79.7839249,79.7839249,80.1051338,z,0,0.3175504,None,,,,,3,1,2025-10-03_16h12.56.243,Motor Sequence,,2025.1.1,60.58755386,2025-10-03 16h13.02.580018 +0530
50,c,30,2,7,c,1,0.2679515,None,7,2,30,2,,,,,80.1169097,,80.1054438,80.1169097,81.1169667,81.1169667,81.1169667,81.1169667,81.1169667,82.1170717,82.1170717,82.3880879,c,1,0.2679515,None,,,,,3,1,2025-10-03_16h12.56.243,Motor Sequence,,2025.1.1,60.58755386,2025-10-03 16h13.02.580018 +0530
-150,z,31,3,7,x,0,0.3918104,None,7,3,31,3,,,,,82.4010436,,82.3884014,82.4010436,83.3998578,83.3998578,83.3998578,83.3998578,83.3998578,84.3997933,84.3997933,84.804321,x,0,0.3918104,None,,,,,3,1,2025-10-03_16h12.56.243,Motor Sequence,,2025.1.1,60.58755386,2025-10-03 16h13.02.580018 +0530
-50,x,32,0,8,v,0,0.3986941,None,8,0,32,0,,,,,84.8170256,,84.8046167,84.8170256,85.8163796,85.8163796,85.8163796,85.8163796,85.8163796,86.8164833,86.8164833,87.2234334,v,0,0.3986941,None,,,,,3,1,2025-10-03_16h12.56.243,Motor Sequence,,2025.1.1,60.58755386,2025-10-03 16h13.02.580018 +0530
150,v,33,1,8,z,0,0.598037,None,8,1,33,1,,,,,87.2337563,,87.2237394,87.2337563,88.2332195,88.2332195,88.2332195,88.2332195,88.2332195,89.2335224,89.2335224,89.834783,z,0,0.598037,None,,,,,3,1,2025-10-03_16h12.56.243,Motor Sequence,,2025.1.1,60.58755386,2025-10-03 16h13.02.580018 +0530
50,c,34,2,8,c,1,0.2813182,None,8,2,34,2,,,,,89.8496745,,89.8349723,89.8496745,90.8336457,90.8336457,90.8336457,90.8336457,90.8506022,91.8492324,91.8492324,92.1377093,c,1,0.2813182,None,,,,,3,1,2025-10-03_16h12.56.243,Motor Sequence,,2025.1.1,60.58755386,2025-10-03 16h13.02.580018 +0530
-150,z,35,3,8,x,0,0.2895343,None,8,3,35,3,,,,,92.1502962,,92.1380527,92.1502962,93.1502856,93.1502856,93.1502856,93.1502856,93.1502856,94.1505979,94.1505979,94.4537547,x,0,0.2895343,None,,,,,3,1,2025-10-03_16h12.56.243,Motor Sequence,,2025.1.1,60.58755386,2025-10-03 16h13.02.580018 +0530
-50,x,36,0,9,v,0,0.2652876,None,9,0,36,0,,,,,94.4672924,,94.4540856,94.4672924,95.4669956,95.4669956,95.4669956,95.4669956,95.4669956,96.4672826,96.4672826,96.7382992,v,0,0.2652876,None,,,,,3,1,2025-10-03_16h12.56.243,Motor Sequence,,2025.1.1,60.58755386,2025-10-03 16h13.02.580018 +0530
150,v,37,1,9,z,0,0.2756593,None,9,1,37,1,,,,,96.7504992,,96.7386225,96.7504992,97.7500996,97.7500996,97.7500996,97.7500996,97.7500996,98.7498303,98.7498303,99.0373598,z,0,0.2756593,None,,,,,3,1,2025-10-03_16h12.56.243,Motor Sequence,,2025.1.1,60.58755386,2025-10-03 16h13.02.580018 +0530
50,c,38,2,9,c,1,0.0066847,None,9,2,38,2,,,,,99.0503233,,99.0376951,99.0503233,100.0507378,100.0507378,100.0507378,100.0507378,100.0507378,101.0506047,101.0506047,101.0696278,c,1,0.0066847,None,,,,,3,1,2025-10-03_16h12.56.243,Motor Sequence,,2025.1.1,60.58755386,2025-10-03 16h13.02.580018 +0530
-150,z,39,3,9,x,0,0.2668978,None,9,3,39,3,,,,,101.0839942,,101.0699151,101.0839942,102.0826625,102.0826625,102.0826625,102.0826625,102.0826625,103.0836983,103.0836983,103.3528044,x,0,0.2668978,None,,,,,3,1,2025-10-03_16h12.56.243,Motor Sequence,,2025.1.1,60.58755386,2025-10-03 16h13.02.580018 +0530
-50,x,40,0,10,v,0,0.2429925,None,10,0,40,0,,,,,103.3670602,,103.3530245,103.3670602,104.3670293,104.3670293,104.3670293,104.3670293,104.3670293,105.3665135,105.3665135,105.6200576,v,0,0.2429925,None,,,,,3,1,2025-10-03_16h12.56.243,Motor Sequence,,2025.1.1,60.58755386,2025-10-03 16h13.02.580018 +0530
150,v,41,1,10,z,0,0.5128306,None,10,1,41,1,,,,,105.633422,,105.6203544,105.633422,106.6340051,106.6340051,106.6340051,106.6340051,106.6340051,107.633725,107.633725,108.1540074,z,0,0.5128306,None,,,,,3,1,2025-10-03_16h12.56.243,Motor Sequence,,2025.1.1,60.58755386,2025-10-03 16h13.02.580018 +0530
50,c,42,2,10,c,1,0.2821992,None,10,2,42,2,,,,,108.1675203,,108.1543116,108.1675203,109.166606,109.166606,109.166606,109.166606,109.166606,110.1668535,110.1668535,110.454614,c,1,0.2821992,None,,,,,3,1,2025-10-03_16h12.56.243,Motor Sequence,,2025.1.1,60.58755386,2025-10-03 16h13.02.580018 +0530
-150,z,43,3,10,x,0,0.4033986,None,10,3,43,3,,,,,110.4665098,,110.4549349,110.4665098,111.4668978,111.4668978,111.4668978,111.4668978,111.4668978,112.4669581,112.4669581,112.8873784,x,0,0.4033986,None,,,,,3,1,2025-10-03_16h12.56.243,Motor Sequence,,2025.1.1,60.58755386,2025-10-03 16h13.02.580018 +0530
-50,x,44,0,11,v,0,0.3936891,None,11,0,44,0,,,,,112.9006709,,112.8876954,112.9006709,113.8997859,113.8997859,113.8997859,113.8997859,113.8997859,114.899887,114.899887,115.3037859,v,0,0.3936891,None,,,,,3,1,2025-10-03_16h12.56.243,Motor Sequence,,2025.1.1,60.58755386,2025-10-03 16h13.02.580018 +0530
150,v,45,1,11,z,0,0.2864691,None,11,1,45,1,,,,,115.3173117,,115.3041154,115.3173117,116.3164154,116.3164154,116.3164154,116.3164154,116.3164154,117.3169055,117.3169055,117.6066451,z,0,0.2864691,None,,,,,3,1,2025-10-03_16h12.56.243,Motor Sequence,,2025.1.1,60.58755386,2025-10-03 16h13.02.580018 +0530
50,c,46,2,11,c,1,0.0126908,None,11,2,46,2,,,,,117.6158298,,117.6070484,117.6158298,118.616471,118.616471,118.616471,118.616471,118.616471,119.6167587,119.6167587,119.6366201,c,1,0.0126908,None,,,,,3,1,2025-10-03_16h12.56.243,Motor Sequence,,2025.1.1,60.58755386,2025-10-03 16h13.02.580018 +0530
-150,z,47,3,11,x,0,0.2745271,None,11,3,47,3,,,,,119.6506047,,119.6369268,119.6506047,120.6504794,120.6504794,120.6504794,120.6504794,120.6504794,121.6498747,121.6498747,121.936731,x,0,0.2745271,None,,,,,3,1,2025-10-03_16h12.56.243,Motor Sequence,,2025.1.1,60.58755386,2025-10-03 16h13.02.580018 +0530
-50,x,48,0,12,v,0,0.3327201,None,12,0,48,0,,,,,121.9496722,,121.9370763,121.9496722,122.949522,122.949522,122.949522,122.949522,122.949522,123.9496669,123.9496669,124.2880223,v,0,0.3327201,None,,,,,3,1,2025-10-03_16h12.56.243,Motor Sequence,,2025.1.1,60.58755386,2025-10-03 16h13.02.580018 +0530
150,v,49,1,12,z,0,0.4242167,None,12,1,49,1,,,,,124.2995826,,124.2883473,124.2995826,125.3000054,125.3000054,125.3000054,125.3000054,125.3000054,126.2998615,126.2998615,126.7367078,z,0,0.4242167,None,,,,,3,1,2025-10-03_16h12.56.243,Motor Sequence,,2025.1.1,60.58755386,2025-10-03 16h13.02.580018 +0530
50,c,50,2,12,c,1,0.2965903,None,12,2,50,2,,,,,126.7501049,,126.7370301,126.7501049,127.7503291,127.7503291,127.7503291,127.7503291,127.7503291,128.7503776,128.7503776,129.0543169,c,1,0.2965903,None,,,,,3,1,2025-10-03_16h12.56.243,Motor Sequence,,2025.1.1,60.58755386,2025-10-03 16h13.02.580018 +0530
-150,z,51,3,12,x,0,0.2494662,None,12,3,51,3,,,,,129.0667946,,129.05465,129.0667946,130.0662581,130.0662581,130.0662581,130.0662581,130.0662581,131.0661403,131.0661403,131.3211163,x,0,0.2494662,None,,,,,3,1,2025-10-03_16h12.56.243,Motor Sequence,,2025.1.1,60.58755386,2025-10-03 16h13.02.580018 +0530
-50,x,52,0,13,v,0,0.2496445,None,13,0,52,0,,,,,131.3331323,,131.3214046,131.3331323,132.3335983,132.3335983,132.3335983,132.3335983,132.3335983,133.3339995,133.3339995,133.5870476,v,0,0.2496445,None,,,,,3,1,2025-10-03_16h12.56.243,Motor Sequence,,2025.1.1,60.58755386,2025-10-03 16h13.02.580018 +0530
150,v,53,1,13,z,0,1.0096855,None,13,1,53,1,,,,,133.6002743,,133.5873987,133.6002743,134.5991216,134.5991216,134.5991216,134.5991216,134.5991216,135.5999707,135.5999707,136.6192509,z,0,1.0096855,None,,,,,3,1,2025-10-03_16h12.56.243,Motor Sequence,,2025.1.1,60.58755386,2025-10-03 16h13.02.580018 +0530
50,c,54,2,13,c,1,0.253932,None,13,2,54,2,,,,,136.6331476,,136.6195306,136.6331476,137.6330776,137.6330776,137.6330776,137.6330776,137.6330776,138.6329761,138.6329761,138.8883563,c,1,0.253932,None,,,,,3,1,2025-10-03_16h12.56.243,Motor Sequence,,2025.1.1,60.58755386,2025-10-03 16h13.02.580018 +0530
-150,z,55,3,13,x,0,0.4084941,None,13,3,55,3,,,,,138.9001155,,138.8886695,138.9001155,139.899815,139.899815,139.899815,139.899815,139.899815,140.8993435,140.8993435,141.3196792,x,0,0.4084941,None,,,,,3,1,2025-10-03_16h12.56.243,Motor Sequence,,2025.1.1,60.58755386,2025-10-03 16h13.02.580018 +0530
-50,x,56,0,14,v,0,0.6826452,None,14,0,56,0,,,,,141.3333083,,141.3199693,141.3333083,142.3329753,142.3329753,142.3329753,142.3329753,142.3329753,143.3316835,143.3316835,144.0191343,v,0,0.6826452,None,,,,,3,1,2025-10-03_16h12.56.243,Motor Sequence,,2025.1.1,60.58755386,2025-10-03 16h13.02.580018 +0530
150,v,57,1,14,c,0,0.4424464,None,14,1,57,1,,,,,144.0327193,,144.0193616,144.0327193,145.0330997,145.0330997,145.0330997,145.0330997,145.0330997,146.0329234,146.0329234,146.4865391,c,0,0.4424464,None,,,,,3,1,2025-10-03_16h12.56.243,Motor Sequence,,2025.1.1,60.58755386,2025-10-03 16h13.02.580018 +0530
50,c,58,2,14,c,1,0.3032616,None,14,2,58,2,,,,,146.5001911,,146.4868921,146.5001911,147.4993387,147.4993387,147.4993387,147.4993387,147.4993387,148.4996228,148.4996228,148.8057707,c,1,0.3032616,None,,,,,3,1,2025-10-03_16h12.56.243,Motor Sequence,,2025.1.1,60.58755386,2025-10-03 16h13.02.580018 +0530
-150,z,59,3,14,x,0,0.2908613,None,14,3,59,3,,,,,148.8155161,,148.8061336,148.8155161,149.8158704,149.8158704,149.8158704,149.8158704,149.8158704,150.8163463,150.8163463,151.1196235,x,0,0.2908613,None,,,,,3,1,2025-10-03_16h12.56.243,Motor Sequence,,2025.1.1,60.58755386,2025-10-03 16h13.02.580018 +0530
-50,x,60,0,15,v,0,0.2225165,None,15,0,60,0,,,,,151.1333572,,151.1199275,151.1333572,152.1329953,152.1329953,152.1329953,152.1329953,152.1329953,153.1327259,153.1327259,153.3689742,v,0,0.2225165,None,,,,,3,1,2025-10-03_16h12.56.243,Motor Sequence,,2025.1.1,60.58755386,2025-10-03 16h13.02.580018 +0530
150,v,61,1,15,z,0,0.1492117,None,15,1,61,1,,,,,153.3826857,,153.3691977,153.3826857,154.3829824,154.3829824,154.3829824,154.3829824,154.3829824,155.3838714,155.3838714,155.5367467,z,0,0.1492117,None,,,,,3,1,2025-10-03_16h12.56.243,Motor Sequence,,2025.1.1,60.58755386,2025-10-03 16h13.02.580018 +0530
50,c,62,2,15,c,1,0.3888006,None,15,2,62,2,,,,,155.5498766,,155.5370163,155.5498766,156.54817,156.54817,156.54817,156.54817,156.54817,157.5499404,157.5499404,157.9531364,c,1,0.3888006,None,,,,,3,1,2025-10-03_16h12.56.243,Motor Sequence,,2025.1.1,60.58755386,2025-10-03 16h13.02.580018 +0530
-150,z,63,3,15,x,0,0.2870114,None,15,3,63,3,,,,,157.9668261,,157.9535126,157.9668261,158.9663892,158.9663892,158.9663892,158.9663892,158.9663892,159.9664154,159.9664154,160.2540059,x,0,0.2870114,None,,,,,3,1,2025-10-03_16h12.56.243,Motor Sequence,,2025.1.1,60.58755386,2025-10-03 16h13.02.580018 +0530
-50,x,64,0,16,v,0,0.2888018,None,16,0,64,0,,,,,160.2662843,,160.2543204,160.2662843,161.2665434,161.2665434,161.2665434,161.2665434,161.2665434,162.266501,162.266501,162.5693597,v,0,0.2888018,None,,,,,3,1,2025-10-03_16h12.56.243,Motor Sequence,,2025.1.1,60.58755386,2025-10-03 16h13.02.580018 +0530
150,v,65,1,16,z,0,0.3424823,None,16,1,65,1,,,,,162.5835689,,162.5697285,162.5835689,163.5827915,163.5827915,163.5827915,163.5827915,163.5827915,164.5825329,164.5825329,164.9370208,z,0,0.3424823,None,,,,,3,1,2025-10-03_16h12.56.243,Motor Sequence,,2025.1.1,60.58755386,2025-10-03 16h13.02.580018 +0530
50,c,66,2,16,c,1,0.0345297,None,16,2,66,2,,,,,164.949855,,164.9373844,164.949855,165.9493014,165.9493014,165.9493014,165.9493014,165.9493014,166.9495301,166.9495301,166.9877788,c,1,0.0345297,None,,,,,3,1,2025-10-03_16h12.56.243,Motor Sequence,,2025.1.1,60.58755386,2025-10-03 16h13.02.580018 +0530
-150,z,67,3,16,x,0,0.2575353,None,16,3,67,3,,,,,166.9996316,,166.9881103,166.9996316,167.9992401,167.9992401,167.9992401,167.9992401,167.9992401,168.9998046,168.9998046,169.2691753,x,0,0.2575353,None,,,,,3,1,2025-10-03_16h12.56.243,Motor Sequence,,2025.1.1,60.58755386,2025-10-03 16h13.02.580018 +0530
-50,x,68,0,17,v,0,0.2861723,None,17,0,68,0,,,,,169.2831079,,169.2694767,169.2831079,170.2828239,170.2828239,170.2828239,170.2828239,170.2828239,171.2829569,171.2829569,171.5717553,v,0,0.2861723,None,,,,,3,1,2025-10-03_16h12.56.243,Motor Sequence,,2025.1.1,60.58755386,2025-10-03 16h13.02.580018 +0530
150,v,69,1,17,z,0,0.2113392,None,17,1,69,1,,,,,171.5826434,,171.5720471,171.5826434,172.5824669,172.5824669,172.5824669,172.5824669,172.5824669,173.5821728,173.5821728,173.8039703,z,0,0.2113392,None,,,,,3,1,2025-10-03_16h12.56.243,Motor Sequence,,2025.1.1,60.58755386,2025-10-03 16h13.02.580018 +0530
50,c,70,2,17,c,1,0.2621125,None,17,2,70,2,,,,,173.8161921,,173.8042694,173.8161921,174.8160089,174.8160089,174.8160089,174.8160089,174.8160089,175.8158547,175.8158547,176.0855447,c,1,0.2621125,None,,,,,3,1,2025-10-03_16h12.56.243,Motor Sequence,,2025.1.1,60.58755386,2025-10-03 16h13.02.580018 +0530
-150,z,71,3,17,x,0,0.0208378,None,17,3,71,3,,,,,176.1000214,,176.0858444,176.1000214,177.0999749,177.0999749,177.0999749,177.0999749,177.1157497,178.099724,178.099724,178.1360124,x,0,0.0208378,None,,,,,3,1,2025-10-03_16h12.56.243,Motor Sequence,,2025.1.1,60.58755386,2025-10-03 16h13.02.580018 +0530
-50,x,72,0,18,v,0,0.2326115,None,18,0,72,0,,,,,178.1497118,,178.1363102,178.1497118,179.1496241,179.1496241,179.1496241,179.1496241,179.1496241,180.148853,180.148853,180.3865255,v,0,0.2326115,None,,,,,3,1,2025-10-03_16h12.56.243,Motor Sequence,,2025.1.1,60.58755386,2025-10-03 16h13.02.580018 +0530
150,v,73,1,18,z,0,0.2611234,None,18,1,73,1,,,,,180.398759,,180.3868584,180.398759,181.4002881,181.4002881,181.4002881,181.4002881,181.4002881,182.399794,182.399794,182.6690398,z,0,0.2611234,None,,,,,3,1,2025-10-03_16h12.56.243,Motor Sequence,,2025.1.1,60.58755386,2025-10-03 16h13.02.580018 +0530
50,c,74,2,18,c,1,0.0419205,None,18,2,74,2,,,,,182.6830156,,182.6693797,182.6830156,183.6825228,183.6825228,183.6825228,183.6825228,183.6825228,184.681395,184.681395,184.7363789,c,1,0.0419205,None,,,,,3,1,2025-10-03_16h12.56.243,Motor Sequence,,2025.1.1,60.58755386,2025-10-03 16h13.02.580018 +0530
-150,z,75,3,18,x,0,0.4169497,None,18,3,75,3,,,,,184.7495806,,184.7367272,184.7495806,185.7494462,185.7494462,185.7494462,185.7494462,185.7494462,186.7493787,186.7493787,187.170348,x,0,0.4169497,None,,,,,3,1,2025-10-03_16h12.56.243,Motor Sequence,,2025.1.1,60.58755386,2025-10-03 16h13.02.580018 +0530
-50,x,76,0,19,v,0,0.2942561,None,19,0,76,0,,,,,187.1825309,,187.1706922,187.1825309,188.1823839,188.1823839,188.1823839,188.1823839,188.1823839,189.1831733,189.1831733,189.4851126,v,0,0.2942561,None,,,,,3,1,2025-10-03_16h12.56.243,Motor Sequence,,2025.1.1,60.58755386,2025-10-03 16h13.02.580018 +0530
150,v,77,1,19,z,0,0.4816602,None,19,1,77,1,,,,,189.4991976,,189.4853949,189.4991976,190.4983408,190.4983408,190.4983408,190.4983408,190.4983408,191.4994964,191.4994964,191.9868974,z,0,0.4816602,None,,,,,3,1,2025-10-03_16h12.56.243,Motor Sequence,,2025.1.1,60.58755386,2025-10-03 16h13.02.580018 +0530
50,c,78,2,19,c,1,0.271694,None,19,2,78,2,,,,,192.0012038,,191.9872109,192.0012038,192.9993298,192.9993298,192.9993298,192.9993298,192.9993298,193.9994703,193.9994703,194.2855898,c,1,0.271694,None,,,,,3,1,2025-10-03_16h12.56.243,Motor Sequence,,2025.1.1,60.58755386,2025-10-03 16h13.02.580018 +0530
-150,z,79,3,19,x,0,0.269082,None,19,3,79,3,,,,,194.2993927,,194.2858867,194.2993927,195.2991807,195.2991807,195.2991807,195.2991807,195.2991807,196.2989915,196.2989915,196.5708848,x,0,0.269082,None,,,,,3,1,2025-10-03_16h12.56.243,Motor Sequence,,2025.1.1,60.58755386,2025-10-03 16h13.02.580018 +0530
-50,x,80,0,20,v,0,0.2648263,None,20,0,80,0,,,,,196.582466,,196.5711989,196.582466,197.5822512,197.5822512,197.5822512,197.5822512,197.5822512,198.5825242,198.5825242,198.8539705,v,0,0.2648263,None,,,,,3,1,2025-10-03_16h12.56.243,Motor Sequence,,2025.1.1,60.58755386,2025-10-03 16h13.02.580018 +0530
150,v,81,1,20,z,0,0.2896619,None,20,1,81,1,,,,,198.8657536,,198.854293,198.8657536,199.8658468,199.8658468,199.8658468,199.8658468,199.8658468,200.8658746,200.8658746,201.1694303,z,0,0.2896619,None,,,,,3,1,2025-10-03_16h12.56.243,Motor Sequence,,2025.1.1,60.58755386,2025-10-03 16h13.02.580018 +0530
50,c,82,2,20,c,1,0.2668357,None,20,2,82,2,,,,,201.1834608,,201.1697847,201.1834608,202.1824311,202.1824311,202.1824311,202.1824311,202.1824311,203.1825774,203.1825774,203.4527807,c,1,0.2668357,None,,,,,3,1,2025-10-03_16h12.56.243,Motor Sequence,,2025.1.1,60.58755386,2025-10-03 16h13.02.580018 +0530
-150,z,83,3,20,x,0,0.2568525,None,20,3,83,3,,,,,203.4657595,,203.4530812,203.4657595,204.4661794,204.4661794,204.4661794,204.4661794,204.4661794,205.4662315,205.4662315,205.7366833,x,0,0.2568525,None,,,,,3,1,2025-10-03_16h12.56.243,Motor Sequence,,2025.1.1,60.58755386,2025-10-03 16h13.02.580018 +0530
-50,x,84,0,21,v,0,0.2685739,None,21,0,84,0,,,,,205.7495679,,205.7370006,205.7495679,206.7498746,206.7498746,206.7498746,206.7498746,206.7498746,207.749101,207.749101,208.0202218,v,0,0.2685739,None,,,,,3,1,2025-10-03_16h12.56.243,Motor Sequence,,2025.1.1,60.58755386,2025-10-03 16h13.02.580018 +0530
150,v,85,1,21,z,0,0.2278474,None,21,1,85,1,,,,,208.0325363,,208.0205243,208.0325363,209.0321486,209.0321486,209.0321486,209.0321486,209.0321486,210.032471,210.032471,210.2686302,z,0,0.2278474,None,,,,,3,1,2025-10-03_16h12.56.243,Motor Sequence,,2025.1.1,60.58755386,2025-10-03 16h13.02.580018 +0530
50,c,86,2,21,c,1,0.2620402,None,21,2,86,2,,,,,210.283191,,210.2689273,210.283191,211.2826368,211.2826368,211.2826368,211.2826368,211.2826368,212.2821623,212.2821623,212.551703,c,1,0.2620402,None,,,,,3,1,2025-10-03_16h12.56.243,Motor Sequence,,2025.1.1,60.58755386,2025-10-03 16h13.02.580018 +0530
-150,z,87,3,21,x,0,0.26896,None,21,3,87,3,,,,,212.5659174,,212.5519838,212.5659174,213.5655284,213.5655284,213.5655284,213.5655284,213.5655284,214.5655195,214.5655195,214.8364165,x,0,0.26896,None,,,,,3,1,2025-10-03_16h12.56.243,Motor Sequence,,2025.1.1,60.58755386,2025-10-03 16h13.02.580018 +0530
-50,x,88,0,22,v,0,0.2068733,None,22,0,88,0,,,,,214.84927,,214.8367293,214.84927,215.8486433,215.8486433,215.8486433,215.8486433,215.8486433,216.8491066,216.8491066,217.0689893,v,0,0.2068733,None,,,,,3,1,2025-10-03_16h12.56.243,Motor Sequence,,2025.1.1,60.58755386,2025-10-03 16h13.02.580018 +0530
150,v,89,1,22,z,0,0.2578965,None,22,1,89,1,,,,,217.0822737,,217.0692807,217.0822737,218.0823228,218.0823228,218.0823228,218.0823228,218.0823228,219.0827901,219.0827901,219.3531904,z,0,0.2578965,None,,,,,3,1,2025-10-03_16h12.56.243,Motor Sequence,,2025.1.1,60.58755386,2025-10-03 16h13.02.580018 +0530
50,c,90,2,22,c,1,0.2987673,None,22,2,90,2,,,,,219.3665113,,219.3535106,219.3665113,220.3655438,220.3655438,220.3655438,220.3655438,220.3655438,221.3654642,221.3654642,221.6695847,c,1,0.2987673,None,,,,,3,1,2025-10-03_16h12.56.243,Motor Sequence,,2025.1.1,60.58755386,2025-10-03 16h13.02.580018 +0530
-150,z,91,3,22,x,0,0.2562821,None,22,3,91,3,,,,,221.6814679,,221.6698666,221.6814679,222.6830191,222.6830191,222.6830191,222.6830191,222.6830191,223.6822237,223.6822237,223.9525029,x,0,0.2562821,None,,,,,3,1,2025-10-03_16h12.56.243,Motor Sequence,,2025.1.1,60.58755386,2025-10-03 16h13.02.580018 +0530
-50,x,92,0,23,v,0,0.1543188,None,23,0,92,0,,,,,223.9659546,,223.9528441,223.9659546,224.9657107,224.9657107,224.9657107,224.9657107,224.9657107,225.9657231,225.9657231,226.1356679,v,0,0.1543188,None,,,,,3,1,2025-10-03_16h12.56.243,Motor Sequence,,2025.1.1,60.58755386,2025-10-03 16h13.02.580018 +0530
150,v,93,1,23,z,0,0.305894,None,23,1,93,1,,,,,226.1495259,,226.1360623,226.1495259,227.1494976,227.1494976,227.1494976,227.1494976,227.1494976,228.1484347,228.1484347,228.4693032,z,0,0.305894,None,,,,,3,1,2025-10-03_16h12.56.243,Motor Sequence,,2025.1.1,60.58755386,2025-10-03 16h13.02.580018 +0530
50,c,94,2,23,c,1,0.2661123,None,23,2,94,2,,,,,228.4825366,,228.4696506,228.4825366,229.4826998,229.4826998,229.4826998,229.4826998,229.4826998,230.482313,230.482313,230.7529913,c,1,0.2661123,None,,,,,3,1,2025-10-03_16h12.56.243,Motor Sequence,,2025.1.1,60.58755386,2025-10-03 16h13.02.580018 +0530
-150,z,95,3,23,x,0,0.3365977,None,23,3,95,3,,,,,230.7656583,,230.7532883,230.7656583,231.7657459,231.7657459,231.7657459,231.7657459,231.7657459,232.7655837,232.7655837,233.1034066,x,0,0.3365977,None,,,,,3,1,2025-10-03_16h12.56.243,Motor Sequence,,2025.1.1,60.58755386,2025-10-03 16h13.02.580018 +0530
-50,x,96,0,24,v,0,0.265484,None,24,0,96,0,,,,,233.1152071,,233.103726,233.1152071,234.1152429,234.1152429,234.1152429,234.1152429,234.1152429,235.1152519,235.1152519,235.3842697,v,0,0.265484,None,,,,,3,1,2025-10-03_16h12.56.243,Motor Sequence,,2025.1.1,60.58755386,2025-10-03 16h13.02.580018 +0530
150,v,97,1,24,z,0,0.3211937,None,24,1,97,1,,,,,235.3982392,,235.3844565,235.3982392,236.3823155,236.3823155,236.3823155,236.3823155,236.399405,237.3988546,237.3988546,237.7342178,z,0,0.3211937,None,,,,,3,1,2025-10-03_16h12.56.243,Motor Sequence,,2025.1.1,60.58755386,2025-10-03 16h13.02.580018 +0530
50,c,98,2,24,c,1,0.5632765,None,24,2,98,2,,,,,237.7489283,,237.7344887,237.7489283,238.7491161,238.7491161,238.7491161,238.7491161,238.7491161,239.7489011,239.7489011,240.3205055,c,1,0.5632765,None,,,,,3,1,2025-10-03_16h12.56.243,Motor Sequence,,2025.1.1,60.58755386,2025-10-03 16h13.02.580018 +0530
-150,z,99,3,24,x,0,0.3034297,None,24,3,99,3,,,,,240.3321585,,240.3208071,240.3321585,241.3317807,241.3317807,241.3317807,241.3317807,241.3317807,242.3316304,242.3316304,242.636668,x,0,0.3034297,None,,,,,3,1,2025-10-03_16h12.56.243,Motor Sequence,,2025.1.1,60.58755386,2025-10-03 16h13.02.580018 +0530
-50,x,100,0,25,v,0,0.3009842,None,25,0,100,0,,,,,242.6490084,,242.6370248,242.6490084,243.6488218,243.6488218,243.6488218,243.6488218,243.6488218,244.6477557,244.6477557,244.9524889,v,0,0.3009842,None,,,,,3,1,2025-10-03_16h12.56.243,Motor Sequence,,2025.1.1,60.58755386,2025-10-03 16h13.02.580018 +0530
150,v,101,1,25,z,0,0.3280872,None,25,1,101,1,,,,,244.9652997,,244.9527043,244.9652997,245.9657944,245.9657944,245.9657944,245.9657944,245.9657944,246.965256,246.965256,247.3019241,z,0,0.3280872,None,,,,,3,1,2025-10-03_16h12.56.243,Motor Sequence,,2025.1.1,60.58755386,2025-10-03 16h13.02.580018 +0530
50,c,102,2,25,c,1,0.2991733,None,25,2,102,2,,,,,247.3159637,,247.3023204,247.3159637,248.3155926,248.3155926,248.3155926,248.3155926,248.3155926,249.3150758,249.3150758,249.6207028,c,1,0.2991733,None,,,,,3,1,2025-10-03_16h12.56.243,Motor Sequence,,2025.1.1,60.58755386,2025-10-03 16h13.02.580018 +0530
-150,z,103,3,25,x,0,0.2757506,None,25,3,103,3,,,,,249.6319876,,249.6210323,249.6319876,250.6320817,250.6320817,250.6320817,250.6320817,250.6320817,251.6306834,251.6306834,251.9180861,x,0,0.2757506,None,,,,,3,1,2025-10-03_16h12.56.243,Motor Sequence,,2025.1.1,60.58755386,2025-10-03 16h13.02.580018 +0530
-50,x,104,0,26,v,0,0.2581556,None,26,0,104,0,,,,,251.931838,,251.9183689,251.931838,252.9317538,252.9317538,252.9317538,252.9317538,252.9317538,253.9324356,253.9324356,254.2002387,v,0,0.2581556,None,,,,,3,1,2025-10-03_16h12.56.243,Motor Sequence,,2025.1.1,60.58755386,2025-10-03 16h13.02.580018 +0530
150,v,105,1,26,z,0,0.2424592,None,26,1,105,1,,,,,254.2163861,,254.2004474,254.2163861,255.2145777,255.2145777,255.2145777,255.2145777,255.2145777,256.2161019,256.2161019,256.4685551,z,0,0.2424592,None,,,,,3,1,2025-10-03_16h12.56.243,Motor Sequence,,2025.1.1,60.58755386,2025-10-03 16h13.02.580018 +0530
50,c,106,2,26,c,1,0.3018438,None,26,2,106,2,,,,,256.4825153,,256.4689104,256.4825153,257.483417,257.483417,257.483417,257.483417,257.483417,258.4813084,258.4813084,258.7864244,c,1,0.3018438,None,,,,,3,1,2025-10-03_16h12.56.243,Motor Sequence,,2025.1.1,60.58755386,2025-10-03 16h13.02.580018 +0530
-150,z,107,3,26,x,0,0.2064309,None,26,3,107,3,,,,,258.7992007,,258.786721,258.7992007,259.7987862,259.7987862,259.7987862,259.7987862,259.7987862,260.7988866,260.7988866,261.0186896,x,0,0.2064309,None,,,,,3,1,2025-10-03_16h12.56.243,Motor Sequence,,2025.1.1,60.58755386,2025-10-03 16h13.02.580018 +0530
-50,x,108,0,27,v,0,0.2492487,None,27,0,108,0,,,,,261.0323691,,261.0189987,261.0323691,262.0318543,262.0318543,262.0318543,262.0318543,262.0318543,263.0317623,263.0317623,263.2850622,v,0,0.2492487,None,,,,,3,1,2025-10-03_16h12.56.243,Motor Sequence,,2025.1.1,60.58755386,2025-10-03 16h13.02.580018 +0530
150,v,109,1,27,z,0,0.2238208,None,27,1,109,1,,,,,263.2981081,,263.2853243,263.2981081,264.2978877,264.2978877,264.2978877,264.2978877,264.2978877,265.2985963,265.2985963,265.5360599,z,0,0.2238208,None,,,,,3,1,2025-10-03_16h12.56.243,Motor Sequence,,2025.1.1,60.58755386,2025-10-03 16h13.02.580018 +0530
50,c,110,2,27,c,1,0.1717375,None,27,2,110,2,,,,,265.5488909,,265.5364009,265.5488909,266.5484127,266.5484127,266.5484127,266.5484127,266.5484127,267.5484085,267.5484085,267.7349525,c,1,0.1717375,None,,,,,3,1,2025-10-03_16h12.56.243,Motor Sequence,,2025.1.1,60.58755386,2025-10-03 16h13.02.580018 +0530
-150,z,111,3,27,x,0,0.1237109,None,27,3,111,3,,,,,267.7488384,,267.7352511,267.7488384,268.7483109,268.7483109,268.7483109,268.7483109,268.7483109,269.7488127,269.7488127,269.8846397,x,0,0.1237109,None,,,,,3,1,2025-10-03_16h12.56.243,Motor Sequence,,2025.1.1,60.58755386,2025-10-03 16h13.02.580018 +0530
-50,x,112,0,28,v,0,0.3163137,None,28,0,112,0,,,,,269.8987602,,269.8849293,269.8987602,270.8985373,270.8985373,270.8985373,270.8985373,270.8985373,271.8972936,271.8972936,272.2178891,v,0,0.3163137,None,,,,,3,1,2025-10-03_16h12.56.243,Motor Sequence,,2025.1.1,60.58755386,2025-10-03 16h13.02.580018 +0530
150,v,113,1,28,z,0,0.2745082,None,28,1,113,1,,,,,272.2310701,,272.2181799,272.2310701,273.2308692,273.2308692,273.2308692,273.2308692,273.2308692,274.2313365,274.2313365,274.5188367,z,0,0.2745082,None,,,,,3,1,2025-10-03_16h12.56.243,Motor Sequence,,2025.1.1,60.58755386,2025-10-03 16h13.02.580018 +0530
50,c,114,2,28,c,1,0.2702191,None,28,2,114,2,,,,,274.5321676,,274.5191748,274.5321676,275.5321569,275.5321569,275.5321569,275.5321569,275.5321569,276.5311481,276.5311481,276.8040768,c,1,0.2702191,None,,,,,3,1,2025-10-03_16h12.56.243,Motor Sequence,,2025.1.1,60.58755386,2025-10-03 16h13.02.580018 +0530
-150,z,115,3,28,x,0,0.2333646,None,28,3,115,3,,,,,276.8153189,,276.8043681,276.8153189,277.8139746,277.8139746,277.8139746,277.8139746,277.8139746,278.8146466,278.8146466,279.0531171,x,0,0.2333646,None,,,,,3,1,2025-10-03_16h12.56.243,Motor Sequence,,2025.1.1,60.58755386,2025-10-03 16h13.02.580018 +0530
-50,x,116,0,29,v,0,0.2641019,None,29,0,116,0,,,,,279.0647012,,279.0544312,279.0647012,280.0654557,280.0654557,280.0654557,280.0654557,280.0654557,281.0648957,281.0648957,281.3361596,v,0,0.2641019,None,,,,,3,1,2025-10-03_16h12.56.243,Motor Sequence,,2025.1.1,60.58755386,2025-10-03 16h13.02.580018 +0530
150,v,117,1,29,z,0,0.2368058,None,29,1,117,1,,,,,281.3483021,,281.3365072,281.3483021,282.348677,282.348677,282.348677,282.348677,282.348677,283.3485492,283.3485492,283.5867921,z,0,0.2368058,None,,,,,3,1,2025-10-03_16h12.56.243,Motor Sequence,,2025.1.1,60.58755386,2025-10-03 16h13.02.580018 +0530
50,c,118,2,29,c,1,0.2603374,None,29,2,118,2,,,,,283.5983995,,283.5870656,283.5983995,284.5979838,284.5979838,284.5979838,284.5979838,284.5979838,285.5979578,285.5979578,285.8654097,c,1,0.2603374,None,,,,,3,1,2025-10-03_16h12.56.243,Motor Sequence,,2025.1.1,60.58755386,2025-10-03 16h13.02.580018 +0530
-150,z,119,3,29,x,0,0.2675883,None,29,3,119,3,,,,,285.8810569,,285.8655988,285.8810569,286.8655759,286.8655759,286.8655759,286.8655759,286.8812569,287.8650155,287.8650155,288.1363573,x,0,0.2675883,None,,,,,3,1,2025-10-03_16h12.56.243,Motor Sequence,,2025.1.1,60.58755386,2025-10-03 16h13.02.580018 +0530
-50,x,120,0,30,v,0,0.4911636,None,30,0,120,0,,,,,288.1483831,,288.136669,288.1483831,289.1482093,289.1482093,289.1482093,289.1482093,289.1482093,290.1471809,290.1471809,290.6522514,v,0,0.4911636,None,,,,,3,1,2025-10-03_16h12.56.243,Motor Sequence,,2025.1.1,60.58755386,2025-10-03 16h13.02.580018 +0530
150,v,121,1,30,z,0,0.2763749,None,30,1,121,1,,,,,290.665445,,290.6526574,290.665445,291.6653031,291.6653031,291.6653031,291.6653031,291.6653031,292.6650604,292.6650604,292.9515929,z,0,0.2763749,None,,,,,3,1,2025-10-03_16h12.56.243,Motor Sequence,,2025.1.1,60.58755386,2025-10-03 16h13.02.580018 +0530
50,c,122,2,30,c,1,0.1413347,None,30,2,122,2,,,,,292.9651589,,292.9518881,292.9651589,293.9639152,293.9639152,293.9639152,293.9639152,293.9639152,294.9646832,294.9646832,295.118671,c,1,0.1413347,None,,,,,3,1,2025-10-03_16h12.56.243,Motor Sequence,,2025.1.1,60.58755386,2025-10-03 16h13.02.580018 +0530
-150,z,123,3,30,x,0,0.351872,None,30,3,123,3,,,,,295.1322269,,295.1189963,295.1322269,296.1314526,296.1314526,296.1314526,296.1314526,296.1314526,297.1312764,297.1312764,297.48375,x,0,0.351872,None,,,,,3,1,2025-10-03_16h12.56.243,Motor Sequence,,2025.1.1,60.58755386,2025-10-03 16h13.02.580018 +0530
-50,x,124,0,31,v,0,0.270597,None,31,0,124,0,,,,,297.4968303,,297.4840288,297.4968303,298.4977161,298.4977161,298.4977161,298.4977161,298.4977161,299.4975024,299.4975024,299.7839501,v,0,0.270597,None,,,,,3,1,2025-10-03_16h12.56.243,Motor Sequence,,2025.1.1,60.58755386,2025-10-03 16h13.02.580018 +0530
150,v,125,1,31,z,0,0.2598232,None,31,1,125,1,,,,,299.7981975,,299.7844337,299.7981975,300.7990089,300.7990089,300.7990089,300.7990089,300.7990089,301.7984325,301.7984325,302.0663849,z,0,0.2598232,None,,,,,3,1,2025-10-03_16h12.56.243,Motor Sequence,,2025.1.1,60.58755386,2025-10-03 16h13.02.580018 +0530
50,c,126,2,31,c,1,0.3251968,None,31,2,126,2,,,,,302.0813835,,302.0666234,302.0813835,303.0650224,303.0650224,303.0650224,303.0650224,303.0810097,304.0802015,304.0802015,304.4179074,c,1,0.3251968,None,,,,,3,1,2025-10-03_16h12.56.243,Motor Sequence,,2025.1.1,60.58755386,2025-10-03 16h13.02.580018 +0530
-150,z,127,3,31,x,0,0.1980554,None,31,3,127,3,,,,,304.4316008,,304.4181852,304.4316008,305.4312722,305.4312722,305.4312722,305.4312722,305.4312722,306.4310488,306.4310488,306.6350454,x,0,0.1980554,None,,,,,3,1,2025-10-03_16h12.56.243,Motor Sequence,,2025.1.1,60.58755386,2025-10-03 16h13.02.580018 +0530
-50,x,128,0,32,v,0,0.2316305,None,32,0,128,0,,,,,306.6485974,,306.6353306,306.6485974,307.6484785,307.6484785,307.6484785,307.6484785,307.6484785,308.6471176,308.6471176,308.8845217,v,0,0.2316305,None,,,,,3,1,2025-10-03_16h12.56.243,Motor Sequence,,2025.1.1,60.58755386,2025-10-03 16h13.02.580018 +0530
150,v,129,1,32,z,0,0.0625134,None,32,1,129,1,,,,,308.8974822,,308.8847651,308.8974822,309.8978627,309.8978627,309.8978627,309.8978627,309.8978627,310.8977029,310.8977029,310.9678504,z,0,0.0625134,None,,,,,3,1,2025-10-03_16h12.56.243,Motor Sequence,,2025.1.1,60.58755386,2025-10-03 16h13.02.580018 +0530
50,c,130,2,32,c,1,0.2589588,None,32,2,130,2,,,,,310.9826561,,310.9681589,310.9826561,311.9811093,311.9811093,311.9811093,311.9811093,311.9811093,312.9807156,312.9807156,313.2518874,c,1,0.2589588,None,,,,,3,1,2025-10-03_16h12.56.243,Motor Sequence,,2025.1.1,60.58755386,2025-10-03 16h13.02.580018 +0530
-150,z,131,3,32,x,0,0.251706,None,32,3,131,3,,,,,313.2646657,,313.2521941,313.2646657,314.2649511,314.2649511,314.2649511,314.2649511,314.2649511,315.2643818,315.2643818,315.5188946,x,0,0.251706,None,,,,,3,1,2025-10-03_16h12.56.243,Motor Sequence,,2025.1.1,60.58755386,2025-10-03 16h13.02.580018 +0530
-50,x,132,0,33,v,0,0.2887525,None,33,0,132,0,,,,,315.5313669,,315.5191767,315.5313669,316.531802,316.531802,316.531802,316.531802,316.531802,317.5311878,317.5311878,317.8347336,v,0,0.2887525,None,,,,,3,1,2025-10-03_16h12.56.243,Motor Sequence,,2025.1.1,60.58755386,2025-10-03 16h13.02.580018 +0530
150,v,133,1,33,z,0,0.3890388,None,33,1,133,1,,,,,317.8479928,,317.8350656,317.8479928,318.8473171,318.8473171,318.8473171,318.8473171,318.8473171,319.8478001,319.8478001,320.2482115,z,0,0.3890388,None,,,,,3,1,2025-10-03_16h12.56.243,Motor Sequence,,2025.1.1,60.58755386,2025-10-03 16h13.02.580018 +0530
50,c,134,2,33,c,1,0.260859,None,33,2,134,2,,,,,320.2641351,,320.2484028,320.2641351,321.248481,321.248481,321.248481,321.248481,321.2642058,322.2488647,322.2488647,322.5175267,c,1,0.260859,None,,,,,3,1,2025-10-03_16h12.56.243,Motor Sequence,,2025.1.1,60.58755386,2025-10-03 16h13.02.580018 +0530
-150,z,135,3,33,x,0,0.2435654,None,33,3,135,3,,,,,322.5316361,,322.5178098,322.5316361,323.5315092,323.5315092,323.5315092,323.5315092,323.5315092,324.5309522,324.5309522,324.7845068,x,0,0.2435654,None,,,,,3,1,2025-10-03_16h12.56.243,Motor Sequence,,2025.1.1,60.58755386,2025-10-03 16h13.02.580018 +0530
-50,x,136,0,34,v,0,0.232135,None,34,0,136,0,,,,,324.7991715,,324.7848238,324.7991715,325.7985853,325.7985853,325.7985853,325.7985853,325.8141896,326.7987878,326.7987878,327.0370531,v,0,0.232135,None,,,,,3,1,2025-10-03_16h12.56.243,Motor Sequence,,2025.1.1,60.58755386,2025-10-03 16h13.02.580018 +0530
150,v,137,1,34,z,0,0.2584442,None,34,1,137,1,,,,,327.0481368,,327.0374021,327.0481368,328.0477501,328.0477501,328.0477501,328.0477501,328.0477501,329.0481312,329.0481312,329.3181759,z,0,0.2584442,None,,,,,3,1,2025-10-03_16h12.56.243,Motor Sequence,,2025.1.1,60.58755386,2025-10-03 16h13.02.580018 +0530
50,c,138,2,34,c,1,0.3074346,None,34,2,138,2,,,,,329.3321172,,329.3184614,329.3321172,330.3307471,330.3307471,330.3307471,330.3307471,330.3307471,331.3311431,331.3311431,331.6513888,c,1,0.3074346,None,,,,,3,1,2025-10-03_16h12.56.243,Motor Sequence,,2025.1.1,60.58755386,2025-10-03 16h13.02.580018 +0530
-150,z,139,3,34,x,0,0.3385261,None,34,3,139,3,,,,,331.6651412,,331.6517036,331.6651412,332.6644356,332.6644356,332.6644356,332.6644356,332.6644356,333.6644181,333.6644181,334.0174868,x,0,0.3385261,None,,,,,3,1,2025-10-03_16h12.56.243,Motor Sequence,,2025.1.1,60.58755386,2025-10-03 16h13.02.580018 +0530
-50,x,140,0,35,v,0,0.4232135,None,35,0,140,0,,,,,334.0314038,,334.0177777,334.0314038,335.0311616,335.0311616,335.0311616,335.0311616,335.0311616,336.0306822,336.0306822,336.4666903,v,0,0.4232135,None,,,,,3,1,2025-10-03_16h12.56.243,Motor Sequence,,2025.1.1,60.58755386,2025-10-03 16h13.02.580018 +0530
150,v,141,1,35,z,0,0.1895486,None,35,1,141,1,,,,,336.4812385,,336.4668846,336.4812385,337.4806361,337.4806361,337.4806361,337.4806361,337.4806361,338.481518,338.481518,338.6820706,z,0,0.1895486,None,,,,,3,1,2025-10-03_16h12.56.243,Motor Sequence,,2025.1.1,60.58755386,2025-10-03 16h13.02.580018 +0530
50,c,142,2,35,c,1,0.2578269,None,35,2,142,2,,,,,338.6976592,,338.6824111,338.6976592,339.6807352,339.6807352,339.6807352,339.6807352,339.6975552,340.697274,340.697274,340.9676669,c,1,0.2578269,None,,,,,3,1,2025-10-03_16h12.56.243,Motor Sequence,,2025.1.1,60.58755386,2025-10-03 16h13.02.580018 +0530
-150,z,143,3,35,x,0,0.2610472,None,35,3,143,3,,,,,340.981356,,340.9679772,340.981356,341.9811062,341.9811062,341.9811062,341.9811062,341.9811062,342.9796835,342.9796835,343.24896,x,0,0.2610472,None,,,,,3,1,2025-10-03_16h12.56.243,Motor Sequence,,2025.1.1,60.58755386,2025-10-03 16h13.02.580018 +0530
-50,x,144,0,36,v,0,0.2259835,None,36,0,144,0,,,,,343.2633764,,343.2492235,343.2633764,344.2630126,344.2630126,344.2630126,344.2630126,344.2630126,345.2641813,345.2641813,345.4999913,v,0,0.2259835,None,,,,,3,1,2025-10-03_16h12.56.243,Motor Sequence,,2025.1.1,60.58755386,2025-10-03 16h13.02.580018 +0530
150,v,145,1,36,z,0,0.2941495,None,36,1,145,1,,,,,345.5142787,,345.5002046,345.5142787,346.5136886,346.5136886,346.5136886,346.5136886,346.5136886,347.514223,347.514223,347.8161207,z,0,0.2941495,None,,,,,3,1,2025-10-03_16h12.56.243,Motor Sequence,,2025.1.1,60.58755386,2025-10-03 16h13.02.580018 +0530
50,c,146,2,36,c,1,0.2292754,None,36,2,146,2,,,,,347.8306454,,347.8163518,347.8306454,348.8312401,348.8312401,348.8312401,348.8312401,348.8312401,349.8312826,349.8312826,350.0673983,c,1,0.2292754,None,,,,,3,1,2025-10-03_16h12.56.243,Motor Sequence,,2025.1.1,60.58755386,2025-10-03 16h13.02.580018 +0530
-150,z,147,3,36,x,0,0.2999972,None,36,3,147,3,,,,,350.0815885,,350.0676846,350.0815885,351.080973,351.080973,351.080973,351.080973,351.080973,352.0809564,352.0809564,352.3874145,x,0,0.2999972,None,,,,,3,1,2025-10-03_16h12.56.243,Motor Sequence,,2025.1.1,60.58755386,2025-10-03 16h13.02.580018 +0530
-50,x,148,0,37,v,0,0.2357388,None,37,0,148,0,,,,,352.3974291,,352.3876972,352.3974291,353.3970817,353.3970817,353.3970817,353.3970817,353.3970817,354.397028,354.397028,354.6338672,v,0,0.2357388,None,,,,,3,1,2025-10-03_16h12.56.243,Motor Sequence,,2025.1.1,60.58755386,2025-10-03 16h13.02.580018 +0530
150,v,149,1,37,z,0,0.3054183,None,37,1,149,1,,,,,354.6476148,,354.6340856,354.6476148,355.6472843,355.6472843,355.6472843,355.6472843,355.6472843,356.6467461,356.6467461,356.9528599,z,0,0.3054183,None,,,,,3,1,2025-10-03_16h12.56.243,Motor Sequence,,2025.1.1,60.58755386,2025-10-03 16h13.02.580018 +0530
50,c,150,2,37,c,1,3.2711262,None,37,2,150,2,,,,,356.9644662,,356.953195,356.9644662,357.9641691,357.9641691,357.9641691,357.9641691,357.9641691,358.9630465,358.9630465,362.2497261,c,1,3.2711262,None,,,,,3,1,2025-10-03_16h12.56.243,Motor Sequence,,2025.1.1,60.58755386,2025-10-03 16h13.02.580018 +0530
-150,z,151,3,37,x,0,0.295384,None,37,3,151,3,,,,,362.2642614,,362.2499847,362.2642614,363.2640451,363.2640451,363.2640451,363.2640451,363.2640451,364.2636059,364.2636059,364.5670678,x,0,0.295384,None,,,,,3,1,2025-10-03_16h12.56.243,Motor Sequence,,2025.1.1,60.58755386,2025-10-03 16h13.02.580018 +0530
-50,x,152,0,38,v,0,0.3460352,None,38,0,152,0,,,,,364.5806327,,364.5673501,364.5806327,365.5803587,365.5803587,365.5803587,365.5803587,365.5803587,366.5794118,366.5794118,366.9337299,v,0,0.3460352,None,,,,,3,1,2025-10-03_16h12.56.243,Motor Sequence,,2025.1.1,60.58755386,2025-10-03 16h13.02.580018 +0530
150,v,153,1,38,z,0,0.2162242,None,38,1,153,1,,,,,366.9474544,,366.9340131,366.9474544,367.9475955,367.9475955,367.9475955,367.9475955,367.9475955,368.9474819,368.9474819,369.1686729,z,0,0.2162242,None,,,,,3,1,2025-10-03_16h12.56.243,Motor Sequence,,2025.1.1,60.58755386,2025-10-03 16h13.02.580018 +0530
50,c,154,2,38,c,1,0.0275197,None,38,2,154,2,,,,,369.1807586,,369.1689528,369.1807586,370.180685,370.180685,370.180685,370.180685,370.180685,371.1810016,371.1810016,371.2190042,c,1,0.0275197,None,,,,,3,1,2025-10-03_16h12.56.243,Motor Sequence,,2025.1.1,60.58755386,2025-10-03 16h13.02.580018 +0530
-150,z,155,3,38,x,0,0.253922,None,38,3,155,3,,,,,371.2318072,,371.2192545,371.2318072,372.2312278,372.2312278,372.2312278,372.2312278,372.2464379,373.2300821,373.2300821,373.4858336,x,0,0.253922,None,,,,,3,1,2025-10-03_16h12.56.243,Motor Sequence,,2025.1.1,60.58755386,2025-10-03 16h13.02.580018 +0530
-50,x,156,0,39,v,0,0.2038659,None,39,0,156,0,,,,,373.4978095,,373.4861433,373.4978095,374.4976161,374.4976161,374.4976161,374.4976161,374.4976161,375.4974958,375.4974958,375.7156131,v,0,0.2038659,None,,,,,3,1,2025-10-03_16h12.56.243,Motor Sequence,,2025.1.1,60.58755386,2025-10-03 16h13.02.580018 +0530
150,v,157,1,39,z,0,0.5077527,None,39,1,157,1,,,,,375.7308236,,375.7158248,375.7308236,376.731036,376.731036,376.731036,376.731036,376.731036,377.7134641,377.7134641,378.2333265,z,0,0.5077527,None,,,,,3,1,2025-10-03_16h12.56.243,Motor Sequence,,2025.1.1,60.58755386,2025-10-03 16h13.02.580018 +0530
50,c,158,2,39,c,1,0.1720368,None,39,2,158,2,,,,,378.2474656,,378.2335846,378.2474656,379.2478506,379.2478506,379.2478506,379.2478506,379.2478506,380.2481087,380.2481087,380.4343412,c,1,0.1720368,None,,,,,3,1,2025-10-03_16h12.56.243,Motor Sequence,,2025.1.1,60.58755386,2025-10-03 16h13.02.580018 +0530
-150,z,159,3,39,x,0,0.265998,None,39,3,159,3,,,,,380.4477209,,380.4347628,380.4477209,381.4478972,381.4478972,381.4478972,381.4478972,381.4478972,382.4472151,382.4472151,382.7174973,x,0,0.265998,None,,,,,3,1,2025-10-03_16h12.56.243,Motor Sequence,,2025.1.1,60.58755386,2025-10-03 16h13.02.580018 +0530
-50,x,160,0,40,v,0,0.2132016,None,40,0,160,0,,,,,382.7310759,,382.7178307,382.7310759,383.7302703,383.7302703,383.7302703,383.7302703,383.7302703,384.7308517,384.7308517,384.9509926,v,0,0.2132016,None,,,,,3,1,2025-10-03_16h12.56.243,Motor Sequence,,2025.1.1,60.58755386,2025-10-03 16h13.02.580018 +0530
150,v,161,1,40,z,0,0.1402535,None,40,1,161,1,,,,,384.9642434,,384.951277,384.9642434,385.9643595,385.9643595,385.9643595,385.9643595,385.9643595,386.9640759,386.9640759,387.1172088,z,0,0.1402535,None,,,,,3,1,2025-10-03_16h12.56.243,Motor Sequence,,2025.1.1,60.58755386,2025-10-03 16h13.02.580018 +0530
50,c,162,2,40,c,1,0.2777402,None,40,2,162,2,,,,,387.130951,,387.1175134,387.130951,388.1305462,388.1305462,388.1305462,388.1305462,388.1305462,389.1304205,389.1304205,389.4173791,c,1,0.2777402,None,,,,,3,1,2025-10-03_16h12.56.243,Motor Sequence,,2025.1.1,60.58755386,2025-10-03 16h13.02.580018 +0530
-150,z,163,3,40,x,0,0.292823,None,40,3,163,3,,,,,389.4306526,,389.4176872,389.4306526,390.4300208,390.4300208,390.4300208,390.4300208,390.4300208,391.4311079,391.4311079,391.7343821,x,0,0.292823,None,,,,,3,1,2025-10-03_16h12.56.243,Motor Sequence,,2025.1.1,60.58755386,2025-10-03 16h13.02.580018 +0530
-50,x,164,0,41,v,0,0.2227069,None,41,0,164,0,,,,,391.747343,,391.7347119,391.747343,392.7473914,392.7473914,392.7473914,392.7473914,392.7473914,393.7471031,393.7471031,393.9840342,v,0,0.2227069,None,,,,,3,1,2025-10-03_16h12.56.243,Motor Sequence,,2025.1.1,60.58755386,2025-10-03 16h13.02.580018 +0530
150,v,165,1,41,z,0,0.3274642,None,41,1,165,1,,,,,393.9973609,,393.9843745,393.9973609,394.9966601,394.9966601,394.9966601,394.9966601,394.9966601,395.9967926,395.9967926,396.3327697,z,0,0.3274642,None,,,,,3,1,2025-10-03_16h12.56.243,Motor Sequence,,2025.1.1,60.58755386,2025-10-03 16h13.02.580018 +0530
50,c,166,2,41,c,1,0.3511666,None,41,2,166,2,,,,,396.346904,,396.3330316,396.346904,397.3473183,397.3473183,397.3473183,397.3473183,397.3473183,398.3473864,398.3473864,398.7013377,c,1,0.3511666,None,,,,,3,1,2025-10-03_16h12.56.243,Motor Sequence,,2025.1.1,60.58755386,2025-10-03 16h13.02.580018 +0530
-150,z,167,3,41,x,0,0.3443883,None,41,3,167,3,,,,,398.7139367,,398.7016202,398.7139367,399.7143134,399.7143134,399.7143134,399.7143134,399.7143134,400.7136507,400.7136507,401.0671499,x,0,0.3443883,None,,,,,3,1,2025-10-03_16h12.56.243,Motor Sequence,,2025.1.1,60.58755386,2025-10-03 16h13.02.580018 +0530
-50,x,168,0,42,v,0,0.2564132,None,42,0,168,0,,,,,401.080897,,401.067427,401.080897,402.0807231,402.0807231,402.0807231,402.0807231,402.0807231,403.079942,403.079942,403.3497448,v,0,0.2564132,None,,,,,3,1,2025-10-03_16h12.56.243,Motor Sequence,,2025.1.1,60.58755386,2025-10-03 16h13.02.580018 +0530
150,v,169,1,42,z,0,0.2581161,None,42,1,169,1,,,,,403.3640045,,403.3500154,403.3640045,404.3640302,404.3640302,404.3640302,404.3640302,404.3640302,405.3640118,405.3640118,405.6342774,z,0,0.2581161,None,,,,,3,1,2025-10-03_16h12.56.243,Motor Sequence,,2025.1.1,60.58755386,2025-10-03 16h13.02.580018 +0530
50,c,170,2,42,c,1,0.2009824,None,42,2,170,2,,,,,405.6468334,,405.6346264,405.6468334,406.6465796,406.6465796,406.6465796,406.6465796,406.6465796,407.6474704,407.6474704,407.8522601,c,1,0.2009824,None,,,,,3,1,2025-10-03_16h12.56.243,Motor Sequence,,2025.1.1,60.58755386,2025-10-03 16h13.02.580018 +0530
-150,z,171,3,42,x,0,0.3011165,None,42,3,171,3,,,,,407.8639221,,407.8525598,407.8639221,408.8634581,408.8634581,408.8634581,408.8634581,408.8634581,409.8631326,409.8631326,410.1676725,x,0,0.3011165,None,,,,,3,1,2025-10-03_16h12.56.243,Motor Sequence,,2025.1.1,60.58755386,2025-10-03 16h13.02.580018 +0530
-50,x,172,0,43,v,0,0.2254578,None,43,0,172,0,,,,,410.1807655,,410.1679736,410.1807655,411.180536,411.180536,411.180536,411.180536,411.180536,412.1803079,412.1803079,412.4176659,v,0,0.2254578,None,,,,,3,1,2025-10-03_16h12.56.243,Motor Sequence,,2025.1.1,60.58755386,2025-10-03 16h13.02.580018 +0530
150,v,173,1,43,z,0,0.4052,None,43,1,173,1,,,,,412.4309858,,412.4179793,412.4309858,413.4301917,413.4301917,413.4301917,413.4301917,413.4301917,414.4302405,414.4302405,414.8499274,z,0,0.4052,None,,,,,3,1,2025-10-03_16h12.56.243,Motor Sequence,,2025.1.1,60.58755386,2025-10-03 16h13.02.580018 +0530
50,c,174,2,43,c,1,0.3012392,None,43,2,174,2,,,,,414.8636632,,414.8501999,414.8636632,415.8633089,415.8633089,415.8633089,415.8633089,415.8633089,416.8635156,416.8635156,417.1701947,c,1,0.3012392,None,,,,,3,1,2025-10-03_16h12.56.243,Motor Sequence,,2025.1.1,60.58755386,2025-10-03 16h13.02.580018 +0530
-150,z,175,3,43,x,0,0.6271078,None,43,3,175,3,,,,,417.1793114,,417.1706229,417.1793114,418.1805765,418.1805765,418.1805765,418.1805765,418.1805765,419.1801463,419.1801463,419.816235,x,0,0.6271078,None,,,,,3,1,2025-10-03_16h12.56.243,Motor Sequence,,2025.1.1,60.58755386,2025-10-03 16h13.02.580018 +0530
-50,x,176,0,44,v,0,0.2715489,None,44,0,176,0,,,,,419.8307771,,419.8165175,419.8307771,420.8301154,420.8301154,420.8301154,420.8301154,420.8301154,421.829649,421.829649,422.1159274,v,0,0.2715489,None,,,,,3,1,2025-10-03_16h12.56.243,Motor Sequence,,2025.1.1,60.58755386,2025-10-03 16h13.02.580018 +0530
150,v,177,1,44,z,0,1.5968439,None,44,1,177,1,,,,,422.1304844,,422.1161552,422.1304844,423.1303768,423.1303768,423.1303768,423.1303768,423.1303768,424.1304504,424.1304504,425.7345074,z,0,1.5968439,None,,,,,3,1,2025-10-03_16h12.56.243,Motor Sequence,,2025.1.1,60.58755386,2025-10-03 16h13.02.580018 +0530
50,c,178,2,44,c,1,0.2325345,None,44,2,178,2,,,,,425.7469352,,425.7348627,425.7469352,426.7458751,426.7458751,426.7458751,426.7458751,426.7458751,427.7459809,427.7459809,427.9844623,c,1,0.2325345,None,,,,,3,1,2025-10-03_16h12.56.243,Motor Sequence,,2025.1.1,60.58755386,2025-10-03 16h13.02.580018 +0530
-150,z,179,3,44,x,0,0.2676055,None,44,3,179,3,,,,,427.9969092,,427.9847785,427.9969092,428.9963353,428.9963353,428.9963353,428.9963353,428.9963353,429.9964423,429.9964423,430.2674554,x,0,0.2676055,None,,,,,3,1,2025-10-03_16h12.56.243,Motor Sequence,,2025.1.1,60.58755386,2025-10-03 16h13.02.580018 +0530
-50,x,180,0,45,v,0,0.3115798,None,45,0,180,0,,,,,430.2804935,,430.2677274,430.2804935,431.2808817,431.2808817,431.2808817,431.2808817,431.2808817,432.279513,432.279513,432.5995234,v,0,0.3115798,None,,,,,3,1,2025-10-03_16h12.56.243,Motor Sequence,,2025.1.1,60.58755386,2025-10-03 16h13.02.580018 +0530
150,v,181,1,45,z,0,0.7981012,None,45,1,181,1,,,,,432.6137822,,432.5998072,432.6137822,433.6134793,433.6134793,433.6134793,433.6134793,433.6134793,434.6133265,434.6133265,435.4163603,z,0,0.7981012,None,,,,,3,1,2025-10-03_16h12.56.243,Motor Sequence,,2025.1.1,60.58755386,2025-10-03 16h13.02.580018 +0530
50,c,182,2,45,c,1,0.2834989,None,45,2,182,2,,,,,435.4304975,,435.4166338,435.4304975,436.430125,436.430125,436.430125,436.430125,436.430125,437.4292722,437.4292722,437.7179234,c,1,0.2834989,None,,,,,3,1,2025-10-03_16h12.56.243,Motor Sequence,,2025.1.1,60.58755386,2025-10-03 16h13.02.580018 +0530
-150,z,183,3,45,x,0,0.2784763,None,45,3,183,3,,,,,437.7300064,,437.7182371,437.7300064,438.7295094,438.7295094,438.7295094,438.7295094,438.7295094,439.7292842,439.7292842,440.0171102,x,0,0.2784763,None,,,,,3,1,2025-10-03_16h12.56.243,Motor Sequence,,2025.1.1,60.58755386,2025-10-03 16h13.02.580018 +0530
-50,x,184,0,46,v,0,0.281041,None,46,0,184,0,,,,,440.0297844,,440.0174353,440.0297844,441.0300015,441.0300015,441.0300015,441.0300015,441.0300015,442.0298379,442.0298379,442.3169862,v,0,0.281041,None,,,,,3,1,2025-10-03_16h12.56.243,Motor Sequence,,2025.1.1,60.58755386,2025-10-03 16h13.02.580018 +0530
150,v,185,1,46,z,0,0.3128608,None,46,1,185,1,,,,,442.3302352,,442.3173017,442.3302352,443.3291499,443.3291499,443.3291499,443.3291499,443.3453856,444.3284136,444.3284136,444.649866,z,0,0.3128608,None,,,,,3,1,2025-10-03_16h12.56.243,Motor Sequence,,2025.1.1,60.58755386,2025-10-03 16h13.02.580018 +0530
50,c,186,2,46,c,1,0.2044599,None,46,2,186,2,,,,,444.6634517,,444.6502089,444.6634517,445.6629619,445.6629619,445.6629619,445.6629619,445.6629619,446.6633497,446.6633497,446.8823403,c,1,0.2044599,None,,,,,3,1,2025-10-03_16h12.56.243,Motor Sequence,,2025.1.1,60.58755386,2025-10-03 16h13.02.580018 +0530
-150,z,187,3,46,x,0,0.270011,None,46,3,187,3,,,,,446.8972098,,446.8826196,446.8972098,447.8961911,447.8961911,447.8961911,447.8961911,447.8961911,448.8966414,448.8966414,449.1674101,x,0,0.270011,None,,,,,3,1,2025-10-03_16h12.56.243,Motor Sequence,,2025.1.1,60.58755386,2025-10-03 16h13.02.580018 +0530
-50,x,188,0,47,v,0,0.28581,None,47,0,188,0,,,,,449.1802434,,449.1676939,449.1802434,450.180119,450.180119,450.180119,450.180119,450.180119,451.1797399,451.1797399,451.4678373,v,0,0.28581,None,,,,,3,1,2025-10-03_16h12.56.243,Motor Sequence,,2025.1.1,60.58755386,2025-10-03 16h13.02.580018 +0530
150,v,189,1,47,z,0,0.2140251,None,47,1,189,1,,,,,451.4799448,,451.4681524,451.4799448,452.4794104,452.4794104,452.4794104,452.4794104,452.4794104,453.4801172,453.4801172,453.7009758,z,0,0.2140251,None,,,,,3,1,2025-10-03_16h12.56.243,Motor Sequence,,2025.1.1,60.58755386,2025-10-03 16h13.02.580018 +0530
50,c,190,2,47,c,1,0.1390102,None,47,2,190,2,,,,,453.7134033,,453.7012858,453.7134033,454.7138879,454.7138879,454.7138879,454.7138879,454.7138879,455.7135966,455.7135966,455.8666754,c,1,0.1390102,None,,,,,3,1,2025-10-03_16h12.56.243,Motor Sequence,,2025.1.1,60.58755386,2025-10-03 16h13.02.580018 +0530
-150,z,191,3,47,x,0,0.2304681,None,47,3,191,3,,,,,455.8797109,,455.8669975,455.8797109,456.8796029,456.8796029,456.8796029,456.8796029,456.8796029,457.8801714,457.8801714,458.1171284,x,0,0.2304681,None,,,,,3,1,2025-10-03_16h12.56.243,Motor Sequence,,2025.1.1,60.58755386,2025-10-03 16h13.02.580018 +0530
-50,x,192,0,48,v,0,0.2205081,None,48,0,192,0,,,,,458.1303734,,458.1174558,458.1303734,459.1300665,459.1300665,459.1300665,459.1300665,459.1300665,460.1298177,460.1298177,460.3663759,v,0,0.2205081,None,,,,,3,1,2025-10-03_16h12.56.243,Motor Sequence,,2025.1.1,60.58755386,2025-10-03 16h13.02.580018 +0530
150,v,193,1,48,z,0,0.2639051,None,48,1,193,1,,,,,460.3793978,,460.3666019,460.3793978,461.379515,461.379515,461.379515,461.379515,461.379515,462.3798787,462.3798787,462.6509483,z,0,0.2639051,None,,,,,3,1,2025-10-03_16h12.56.243,Motor Sequence,,2025.1.1,60.58755386,2025-10-03 16h13.02.580018 +0530
50,c,194,2,48,c,1,0.1594725,None,48,2,194,2,,,,,462.6636782,,462.651299,462.6636782,463.6627364,463.6627364,463.6627364,463.6627364,463.6627364,464.6627421,464.6627421,464.8330321,c,1,0.1594725,None,,,,,3,1,2025-10-03_16h12.56.243,Motor Sequence,,2025.1.1,60.58755386,2025-10-03 16h13.02.580018 +0530
-150,z,195,3,48,x,0,0.1639711,None,48,3,195,3,,,,,464.8467947,,464.8333296,464.8467947,465.8461547,465.8461547,465.8461547,465.8461547,465.8461547,466.8458824,466.8458824,467.0168456,x,0,0.1639711,None,,,,,3,1,2025-10-03_16h12.56.243,Motor Sequence,,2025.1.1,60.58755386,2025-10-03 16h13.02.580018 +0530
-50,x,196,0,49,v,0,0.0829568,None,49,0,196,0,,,,,467.0300162,,467.0171991,467.0300162,468.0286592,468.0286592,468.0286592,468.0286592,468.045255,469.0292655,469.0292655,469.1177222,v,0,0.0829568,None,,,,,3,1,2025-10-03_16h12.56.243,Motor Sequence,,2025.1.1,60.58755386,2025-10-03 16h13.02.580018 +0530
150,v,197,1,49,z,0,0.2307323,None,49,1,197,1,,,,,469.129679,,469.1180307,469.129679,470.1291385,470.1291385,470.1291385,470.1291385,470.1291385,471.1295184,471.1295184,471.3664566,z,0,0.2307323,None,,,,,3,1,2025-10-03_16h12.56.243,Motor Sequence,,2025.1.1,60.58755386,2025-10-03 16h13.02.580018 +0530
50,c,198,2,49,c,1,0.3151063,None,49,2,198,2,,,,,471.380132,,471.3667388,471.380132,472.3793412,472.3793412,472.3793412,472.3793412,472.3793412,473.3797884,473.3797884,473.7004451,c,1,0.3151063,None,,,,,3,1,2025-10-03_16h12.56.243,Motor Sequence,,2025.1.1,60.58755386,2025-10-03 16h13.02.580018 +0530
-150,z,199,3,49,x,0,0.2819529,None,49,3,199,3,,,,,473.7133874,,473.7007545,473.7133874,474.7126795,474.7126795,474.7126795,474.7126795,474.7126795,475.7134641,475.7134641,476.0009965,x,0,0.2819529,None,,,,,3,1,2025-10-03_16h12.56.243,Motor Sequence,,2025.1.1,60.58755386,2025-10-03 16h13.02.580018 +0530
150,v,0,0,0,v,1,0.3100501,None,,,,,0,0,0,1,476.0120726,,476.0066544,476.0120726,477.0124296,477.0124296,477.0124296,477.0124296,477.0124296,478.0128354,478.0128354,478.3338092,,,,,v,1,0.3100501,None,3,1,2025-10-03_16h12.56.243,Motor Sequence,,2025.1.1,60.58755386,2025-10-03 16h13.02.580018 +0530
50,c,1,1,0,c,1,1.3490548,None,,,,,0,1,1,2,478.3463869,,478.3341365,478.3463869,479.3462491,479.3462491,479.3462491,479.3462491,479.3462491,480.3467725,480.3467725,481.7013443,,,,,c,1,1.3490548,None,3,1,2025-10-03_16h12.56.243,Motor Sequence,,2025.1.1,60.58755386,2025-10-03 16h13.02.580018 +0530
-50,x,2,2,0,v,0,1.1180313,None,,,,,0,2,2,0,481.7128915,,481.7016856,481.7128915,482.7132265,482.7132265,482.7132265,482.7132265,482.7132265,483.7124244,483.7124244,484.833718,,,,,v,0,1.1180313,None,3,1,2025-10-03_16h12.56.243,Motor Sequence,,2025.1.1,60.58755386,2025-10-03 16h13.02.580018 +0530
-150,z,3,3,0,z,1,1.4540307,None,,,,,0,3,3,3,484.8464088,,484.8340258,484.8464088,485.8458209,485.8458209,485.8458209,485.8458209,485.8458209,486.8464919,486.8464919,488.3015957,,,,,z,1,1.4540307,None,3,1,2025-10-03_16h12.56.243,Motor Sequence,,2025.1.1,60.58755386,2025-10-03 16h13.02.580018 +0530
-150,z,4,0,1,x,0,0.7860846,None,,,,,1,0,4,3,488.3130137,,488.301924,488.3130137,489.3125217,489.3125217,489.3125217,489.3125217,489.3125217,490.3125762,490.3125762,491.1002788,,,,,x,0,0.7860846,None,3,1,2025-10-03_16h12.56.243,Motor Sequence,,2025.1.1,60.58755386,2025-10-03 16h13.02.580018 +0530
-50,x,5,1,1,v,0,0.7496658,None,,,,,1,1,5,0,491.1129033,,491.1005735,491.1129033,492.1124728,492.1124728,492.1124728,492.1124728,492.1124728,493.1122032,493.1122032,493.8673002,,,,,v,0,0.7496658,None,3,1,2025-10-03_16h12.56.243,Motor Sequence,,2025.1.1,60.58755386,2025-10-03 16h13.02.580018 +0530
150,v,6,2,1,z,0,2.1873681,None,,,,,1,2,6,1,493.8798391,,493.8676379,493.8798391,494.8792905,494.8792905,494.8792905,494.8792905,494.8792905,495.879707,495.879707,498.0821653,,,,,z,0,2.1873681,None,3,1,2025-10-03_16h12.56.243,Motor Sequence,,2025.1.1,60.58755386,2025-10-03 16h13.02.580018 +0530
50,c,7,3,1,c,1,1.2326351,None,,,,,1,3,7,2,498.0963298,,498.0824691,498.0963298,499.0961214,499.0961214,499.0961214,499.0961214,499.0961214,500.0961767,500.0961767,501.3345856,,,,,c,1,1.2326351,None,3,1,2025-10-03_16h12.56.243,Motor Sequence,,2025.1.1,60.58755386,2025-10-03 16h13.02.580018 +0530
150,v,8,0,2,z,0,1.2596474,None,,,,,2,0,8,1,501.3462218,,501.3349665,501.3462218,502.3458132,502.3458132,502.3458132,502.3458132,502.3458132,503.3460106,503.3460106,504.6166773,,,,,z,0,1.2596474,None,3,1,2025-10-03_16h12.56.243,Motor Sequence,,2025.1.1,60.58755386,2025-10-03 16h13.02.580018 +0530
50,c,9,1,2,c,1,0.8320105,None,,,,,2,1,9,2,504.6294892,,504.6169823,504.6294892,505.6294511,505.6294511,505.6294511,505.6294511,505.6294511,506.6295743,506.6295743,507.4655968,,,,,c,1,0.8320105,None,3,1,2025-10-03_16h12.56.243,Motor Sequence,,2025.1.1,60.58755386,2025-10-03 16h13.02.580018 +0530
-50,x,10,2,2,v,0,0.8436929,None,,,,,2,2,10,0,507.4789681,,507.4658765,507.4789681,508.4787046,508.4787046,508.4787046,508.4787046,508.4787046,509.4792463,509.4792463,510.3331233,,,,,v,0,0.8436929,None,3,1,2025-10-03_16h12.56.243,Motor Sequence,,2025.1.1,60.58755386,2025-10-03 16h13.02.580018 +0530
-150,z,11,3,2,x,0,1.8044025,None,,,,,2,3,11,3,510.3464702,,510.3334536,510.3464702,511.3456588,511.3456588,511.3456588,511.3456588,511.3620609,512.3454452,512.3454452,514.1503688,,,,,x,0,1.8044025,None,3,1,2025-10-03_16h12.56.243,Motor Sequence,,2025.1.1,60.58755386,2025-10-03 16h13.02.580018 +0530
50,c,12,0,3,c,1,1.0306021,None,,,,,3,0,12,2,514.1625854,,514.1507118,514.1625854,515.1626296,515.1626296,515.1626296,515.1626296,515.1626296,516.1624651,516.1624651,517.2002884,,,,,c,1,1.0306021,None,3,1,2025-10-03_16h12.56.243,Motor Sequence,,2025.1.1,60.58755386,2025-10-03 16h13.02.580018 +0530
150,v,13,1,3,z,0,1.2672334,None,,,,,3,1,13,1,517.2127664,,517.2006075,517.2127664,518.2119033,518.2119033,518.2119033,518.2119033,518.2119033,519.2111083,519.2111083,520.4839833,,,,,z,0,1.2672334,None,3,1,2025-10-03_16h12.56.243,Motor Sequence,,2025.1.1,60.58755386,2025-10-03 16h13.02.580018 +0530
-150,z,14,2,3,x,0,0.8506823,None,,,,,3,2,14,3,520.4959881,,520.4843354,520.4959881,521.4958288,521.4958288,521.4958288,521.4958288,521.4958288,522.4952424,522.4952424,523.3502938,,,,,x,0,0.8506823,None,3,1,2025-10-03_16h12.56.243,Motor Sequence,,2025.1.1,60.58755386,2025-10-03 16h13.02.580018 +0530
-50,x,15,3,3,v,0,0.980295,None,,,,,3,3,15,0,523.3627106,,523.3506672,523.3627106,524.3622797,524.3622797,524.3622797,524.3622797,524.3622797,525.361847,525.361847,526.3475369,,,,,v,0,0.980295,None,3,1,2025-10-03_16h12.56.243,Motor Sequence,,2025.1.1,60.58755386,2025-10-03 16h13.02.580018 +0530
50,c,16,0,4,c,1,0.6976337,None,,,,,4,0,16,2,526.3621807,,526.3477665,526.3621807,527.3622313,527.3622313,527.3622313,527.3622313,527.3622313,528.3610471,528.3610471,529.0664659,,,,,c,1,0.6976337,None,3,1,2025-10-03_16h12.56.243,Motor Sequence,,2025.1.1,60.58755386,2025-10-03 16h13.02.580018 +0530
-150,z,17,1,4,x,0,0.627411,None,,,,,4,1,17,3,529.0793013,,529.066787,529.0793013,530.0791356,530.0791356,530.0791356,530.0791356,530.0791356,531.0793031,531.0793031,531.7157311,,,,,x,0,0.627411,None,3,1,2025-10-03_16h12.56.243,Motor Sequence,,2025.1.1,60.58755386,2025-10-03 16h13.02.580018 +0530
-50,x,18,2,4,v,0,0.9160801,None,,,,,4,2,18,0,531.7293093,,531.7160694,531.7293093,532.7282017,532.7282017,532.7282017,532.7282017,532.7443813,533.7290562,533.7290562,534.650677,,,,,v,0,0.9160801,None,3,1,2025-10-03_16h12.56.243,Motor Sequence,,2025.1.1,60.58755386,2025-10-03 16h13.02.580018 +0530
150,v,19,3,4,z,0,0.9006648,None,,,,,4,3,19,1,534.6624668,,534.6510536,534.6624668,535.6611072,535.6611072,535.6611072,535.6611072,535.6611072,536.6625396,536.6625396,537.5666888,,,,,z,0,0.9006648,None,3,1,2025-10-03_16h12.56.243,Motor Sequence,,2025.1.1,60.58755386,2025-10-03 16h13.02.580018 +0530
150,v,20,0,5,z,0,0.9117997,None,,,,,5,0,20,1,537.579141,,537.5670094,537.579141,538.5787378,538.5787378,538.5787378,538.5787378,538.5787378,539.5786857,539.5786857,540.4972066,,,,,z,0,0.9117997,None,3,1,2025-10-03_16h12.56.243,Motor Sequence,,2025.1.1,60.58755386,2025-10-03 16h13.02.580018 +0530
-50,x,21,1,5,v,0,0.9554616,None,,,,,5,1,21,0,540.5119647,,540.4974574,540.5119647,541.5122501,541.5122501,541.5122501,541.5122501,541.5122501,542.510874,542.510874,543.4674887,,,,,v,0,0.9554616,None,3,1,2025-10-03_16h12.56.243,Motor Sequence,,2025.1.1,60.58755386,2025-10-03 16h13.02.580018 +0530
-150,z,22,2,5,x,0,0.7969082,None,,,,,5,2,22,3,543.4788265,,543.4678241,543.4788265,544.4785653,544.4785653,544.4785653,544.4785653,544.4785653,545.4781697,545.4781697,546.2815617,,,,,x,0,0.7969082,None,3,1,2025-10-03_16h12.56.243,Motor Sequence,,2025.1.1,60.58755386,2025-10-03 16h13.02.580018 +0530
50,c,23,3,5,c,1,1.2712074,None,,,,,5,3,23,2,546.2955182,,546.2818708,546.2955182,547.2953853,547.2953853,547.2953853,547.2953853,547.2953853,548.2959734,548.2959734,549.5818194,,,,,c,1,1.2712074,None,3,1,2025-10-03_16h12.56.243,Motor Sequence,,2025.1.1,60.58755386,2025-10-03 16h13.02.580018 +0530
-150,z,24,0,6,x,0,0.6176292,None,,,,,6,0,24,3,549.5960477,,549.5823333,549.5960477,550.5952282,550.5952282,550.5952282,550.5952282,550.6118671,551.5953472,551.5953472,552.2171427,,,,,x,0,0.6176292,None,3,1,2025-10-03_16h12.56.243,Motor Sequence,,2025.1.1,60.58755386,2025-10-03 16h13.02.580018 +0530
50,c,25,1,6,c,1,0.9561139,None,,,,,6,1,25,2,552.2288071,,552.2176051,552.2288071,553.2279839,553.2279839,553.2279839,553.2279839,553.2279839,554.2282894,554.2282894,555.1987328,,,,,c,1,0.9561139,None,3,1,2025-10-03_16h12.56.243,Motor Sequence,,2025.1.1,60.58755386,2025-10-03 16h13.02.580018 +0530
150,v,26,2,6,z,0,1.1026272,None,,,,,6,2,26,1,555.2120162,,555.1990715,555.2120162,556.2122915,556.2122915,556.2122915,556.2122915,556.2122915,557.2124759,557.2124759,558.3174387,,,,,z,0,1.1026272,None,3,1,2025-10-03_16h12.56.243,Motor Sequence,,2025.1.1,60.58755386,2025-10-03 16h13.02.580018 +0530
-50,x,27,3,6,v,0,1.1308024,None,,,,,6,3,27,0,558.3289063,,558.317755,558.3289063,559.3290641,559.3290641,559.3290641,559.3290641,559.3290641,560.3288275,560.3288275,561.4662823,,,,,v,0,1.1308024,None,3,1,2025-10-03_16h12.56.243,Motor Sequence,,2025.1.1,60.58755386,2025-10-03 16h13.02.580018 +0530
-150,z,28,0,7,x,0,0.5774147,None,,,,,7,0,28,3,561.4793166,,561.4665674,561.4793166,562.478572,562.478572,562.478572,562.478572,562.478572,563.4789695,563.4789695,564.064791,,,,,x,0,0.5774147,None,3,1,2025-10-03_16h12.56.243,Motor Sequence,,2025.1.1,60.58755386,2025-10-03 16h13.02.580018 +0530
-50,x,29,1,7,v,0,1.0624949,None,,,,,7,1,29,0,564.0787797,,564.065077,564.0787797,565.0788003,565.0788003,565.0788003,565.0788003,565.0788003,566.0781585,566.0781585,567.1490331,,,,,v,0,1.0624949,None,3,1,2025-10-03_16h12.56.243,Motor Sequence,,2025.1.1,60.58755386,2025-10-03 16h13.02.580018 +0530
150,v,30,2,7,z,0,0.8040848,None,,,,,7,2,30,1,567.162462,,567.1493726,567.162462,568.1617716,568.1617716,568.1617716,568.1617716,568.1617716,569.1618069,569.1618069,569.9674485,,,,,z,0,0.8040848,None,3,1,2025-10-03_16h12.56.243,Motor Sequence,,2025.1.1,60.58755386,2025-10-03 16h13.02.580018 +0530
50,c,31,3,7,c,1,1.4903197,None,,,,,7,3,31,2,569.978444,,569.9678204,569.978444,570.9782103,570.9782103,570.9782103,570.9782103,570.9782103,571.9780852,571.9780852,573.4823563,,,,,c,1,1.4903197,None,3,1,2025-10-03_16h12.56.243,Motor Sequence,,2025.1.1,60.58755386,2025-10-03 16h13.02.580018 +0530
-150,z,32,0,8,x,0,0.5939363,None,,,,,8,0,32,3,573.4957705,,573.4827129,573.4957705,574.4948032,574.4948032,574.4948032,574.4948032,574.4948032,575.4949174,575.4949174,576.0982033,,,,,x,0,0.5939363,None,3,1,2025-10-03_16h12.56.243,Motor Sequence,,2025.1.1,60.58755386,2025-10-03 16h13.02.580018 +0530
150,v,33,1,8,z,0,0.6851002,None,,,,,8,1,33,1,576.1123611,,576.0984894,576.1123611,577.1114777,577.1114777,577.1114777,577.1114777,577.1114777,578.1120042,578.1120042,578.8005666,,,,,z,0,0.6851002,None,3,1,2025-10-03_16h12.56.243,Motor Sequence,,2025.1.1,60.58755386,2025-10-03 16h13.02.580018 +0530
-50,x,34,2,8,v,0,2.2162608,None,,,,,8,2,34,0,578.8114328,,578.8009245,578.8114328,579.811238,579.811238,579.811238,579.811238,579.811238,580.8116532,580.8116532,583.0335616,,,,,v,0,2.2162608,None,3,1,2025-10-03_16h12.56.243,Motor Sequence,,2025.1.1,60.58755386,2025-10-03 16h13.02.580018 +0530
50,c,35,3,8,c,1,1.9086615,None,,,,,8,3,35,2,583.0450269,,583.0339144,583.0450269,584.0445669,584.0445669,584.0445669,584.0445669,584.0445669,585.0450425,585.0450425,586.9642122,,,,,c,1,1.9086615,None,3,1,2025-10-03_16h12.56.243,Motor Sequence,,2025.1.1,60.58755386,2025-10-03 16h13.02.580018 +0530
50,c,36,0,9,c,1,1.4379196,None,,,,,9,0,36,2,586.9780711,,586.9644917,586.9780711,587.9784924,587.9784924,587.9784924,587.9784924,587.9784924,588.9781414,588.9781414,590.4323686,,,,,c,1,1.4379196,None,3,1,2025-10-03_16h12.56.243,Motor Sequence,,2025.1.1,60.58755386,2025-10-03 16h13.02.580018 +0530
-150,z,37,1,9,x,0,0.8626364,None,,,,,9,1,37,3,590.4456769,,590.4328248,590.4456769,591.4447772,591.4447772,591.4447772,591.4447772,591.4447772,592.4449165,592.4449165,593.3142568,,,,,x,0,0.8626364,None,3,1,2025-10-03_16h12.56.243,Motor Sequence,,2025.1.1,60.58755386,2025-10-03 16h13.02.580018 +0530
-50,x,38,2,9,v,0,1.782415,None,,,,,9,2,38,0,593.3284395,,593.3145317,593.3284395,594.3280119,594.3280119,594.3280119,594.3280119,594.3280119,595.3285206,595.3285206,597.1140687,,,,,v,0,1.782415,None,3,1,2025-10-03_16h12.56.243,Motor Sequence,,2025.1.1,60.58755386,2025-10-03 16h13.02.580018 +0530
150,v,39,3,9,z,0,0.8572583,None,,,,,9,3,39,1,597.1284955,,597.1143598,597.1284955,598.1287816,598.1287816,598.1287816,598.1287816,598.1287816,599.1275331,599.1275331,599.99925,,,,,z,0,0.8572583,None,3,1,2025-10-03_16h12.56.243,Motor Sequence,,2025.1.1,60.58755386,2025-10-03 16h13.02.580018 +0530
-150,z,40,0,10,x,0,1.0486548,None,,,,,10,0,40,3,600.0112846,,599.9996063,600.0112846,601.0109398,601.0109398,601.0109398,601.0109398,601.0109398,602.0117289,602.0117289,603.065803,,,,,x,0,1.0486548,None,3,1,2025-10-03_16h12.56.243,Motor Sequence,,2025.1.1,60.58755386,2025-10-03 16h13.02.580018 +0530
-50,x,41,1,10,v,0,1.4622159,None,,,,,10,1,41,0,603.0780517,,603.0661095,603.0780517,604.07834,604.07834,604.07834,604.07834,604.07834,605.0787705,605.0787705,606.5487099,,,,,v,0,1.4622159,None,3,1,2025-10-03_16h12.56.243,Motor Sequence,,2025.1.1,60.58755386,2025-10-03 16h13.02.580018 +0530
50,c,42,2,10,c,1,3.7085626,None,,,,,10,2,42,2,606.5617322,,606.5490716,606.5617322,607.5612267,607.5612267,607.5612267,607.5612267,607.5612267,608.5618404,608.5618404,612.2813237,,,,,c,1,3.7085626,None,3,1,2025-10-03_16h12.56.243,Motor Sequence,,2025.1.1,60.58755386,2025-10-03 16h13.02.580018 +0530
150,v,43,3,10,z,0,0.7991612,None,,,,,10,3,43,1,612.2953531,,612.2817073,612.2953531,613.2949792,613.2949792,613.2949792,613.2949792,613.310808,614.2942418,614.2942418,615.0985185,,,,,z,0,0.7991612,None,3,1,2025-10-03_16h12.56.243,Motor Sequence,,2025.1.1,60.58755386,2025-10-03 16h13.02.580018 +0530
-50,x,44,0,11,v,0,0.8654276,None,,,,,11,0,44,0,615.1116626,,615.0988057,615.1116626,616.1111668,616.1111668,616.1111668,616.1111668,616.1111668,617.1113167,617.1113167,617.9792556,,,,,v,0,0.8654276,None,3,1,2025-10-03_16h12.56.243,Motor Sequence,,2025.1.1,60.58755386,2025-10-03 16h13.02.580018 +0530
50,c,45,1,11,c,1,0.9977494,None,,,,,11,1,45,2,617.9944516,,617.9794561,617.9944516,618.9787195,618.9787195,618.9787195,618.9787195,618.9942694,619.994515,619.994515,620.9990159,,,,,c,1,0.9977494,None,3,1,2025-10-03_16h12.56.243,Motor Sequence,,2025.1.1,60.58755386,2025-10-03 16h13.02.580018 +0530
-150,z,46,2,11,x,0,0.7187173,None,,,,,11,2,46,3,621.0116631,,620.9993518,621.0116631,622.0108027,622.0108027,622.0108027,622.0108027,622.0108027,623.0108299,623.0108299,623.7332673,,,,,x,0,0.7187173,None,3,1,2025-10-03_16h12.56.243,Motor Sequence,,2025.1.1,60.58755386,2025-10-03 16h13.02.580018 +0530
150,v,47,3,11,z,0,1.0214383,None,,,,,11,3,47,1,623.7448395,,623.7335826,623.7448395,624.7444994,624.7444994,624.7444994,624.7444994,624.7444994,625.7447534,625.7447534,626.7811795,,,,,z,0,1.0214383,None,3,1,2025-10-03_16h12.56.243,Motor Sequence,,2025.1.1,60.58755386,2025-10-03 16h13.02.580018 +0530
-50,x,48,0,12,v,0,1.0863144,None,,,,,12,0,48,0,626.7948558,,626.781503,626.7948558,627.7946536,627.7946536,627.7946536,627.7946536,627.7946536,628.7942904,628.7942904,629.8821522,,,,,v,0,1.0863144,None,3,1,2025-10-03_16h12.56.243,Motor Sequence,,2025.1.1,60.58755386,2025-10-03 16h13.02.580018 +0530
150,v,49,1,12,z,0,1.2271056,None,,,,,12,1,49,1,629.8951523,,629.882454,629.8951523,630.8942018,630.8942018,630.8942018,630.8942018,630.8942018,631.8943063,631.8943063,633.131905,,,,,z,0,1.2271056,None,3,1,2025-10-03_16h12.56.243,Motor Sequence,,2025.1.1,60.58755386,2025-10-03 16h13.02.580018 +0530
50,c,50,2,12,c,1,0.99581,None,,,,,12,2,50,2,633.1445631,,633.1323371,633.1445631,634.1441731,634.1441731,634.1441731,634.1441731,634.1441731,635.1458246,635.1458246,636.1486252,,,,,c,1,0.99581,None,3,1,2025-10-03_16h12.56.243,Motor Sequence,,2025.1.1,60.58755386,2025-10-03 16h13.02.580018 +0530
-150,z,51,3,12,x,0,0.6271792,None,,,,,12,3,51,3,636.1613682,,636.1489846,636.1613682,637.161714,637.161714,637.161714,637.161714,637.161714,638.1605841,638.1605841,638.7984114,,,,,x,0,0.6271792,None,3,1,2025-10-03_16h12.56.243,Motor Sequence,,2025.1.1,60.58755386,2025-10-03 16h13.02.580018 +0530
-150,z,52,0,13,x,0,0.5132842,None,,,,,13,0,52,3,638.8115124,,638.798785,638.8115124,639.8109013,639.8109013,639.8109013,639.8109013,639.8109013,640.8104846,640.8104846,641.3300972,,,,,x,0,0.5132842,None,3,1,2025-10-03_16h12.56.243,Motor Sequence,,2025.1.1,60.58755386,2025-10-03 16h13.02.580018 +0530
-50,x,53,1,13,v,0,1.1269863,None,,,,,13,1,53,0,641.3445296,,641.3303524,641.3445296,642.3441153,642.3441153,642.3441153,642.3441153,642.3441153,643.3444567,643.3444567,644.4806333,,,,,v,0,1.1269863,None,3,1,2025-10-03_16h12.56.243,Motor Sequence,,2025.1.1,60.58755386,2025-10-03 16h13.02.580018 +0530
50,c,54,2,13,c,1,0.9835059,None,,,,,13,2,54,2,644.4949253,,644.4809368,644.4949253,645.4948599,645.4948599,645.4948599,645.4948599,645.4948599,646.4951385,646.4951385,647.4819618,,,,,c,1,0.9835059,None,3,1,2025-10-03_16h12.56.243,Motor Sequence,,2025.1.1,60.58755386,2025-10-03 16h13.02.580018 +0530
150,v,55,3,13,c,0,1.1600619,None,,,,,13,3,55,1,647.4948302,,647.4822667,647.4948302,648.4944639,648.4944639,648.4944639,648.4944639,648.4944639,649.4948519,649.4948519,650.6639774,,,,,c,0,1.1600619,None,3,1,2025-10-03_16h12.56.243,Motor Sequence,,2025.1.1,60.58755386,2025-10-03 16h13.02.580018 +0530
50,c,56,0,14,c,1,4.5312897,None,,,,,14,0,56,2,650.678508,,650.6642815,650.678508,651.6764989,651.6764989,651.6764989,651.6764989,651.6764989,652.677241,652.677241,657.2145886,,,,,c,1,4.5312897,None,3,1,2025-10-03_16h12.56.243,Motor Sequence,,2025.1.1,60.58755386,2025-10-03 16h13.02.580018 +0530
150,v,57,1,14,z,0,0.98552,None,,,,,14,1,57,1,657.2269746,,657.214881,657.2269746,658.2273495,658.2273495,658.2273495,658.2273495,658.2273495,659.2272526,659.2272526,660.2176804,,,,,z,0,0.98552,None,3,1,2025-10-03_16h12.56.243,Motor Sequence,,2025.1.1,60.58755386,2025-10-03 16h13.02.580018 +0530
-150,z,58,2,14,x,0,0.708613,None,,,,,14,2,58,3,660.22765,,660.2179765,660.22765,661.2273108,661.2273108,661.2273108,661.2273108,661.2273108,662.2273296,662.2273296,662.9478137,,,,,x,0,0.708613,None,3,1,2025-10-03_16h12.56.243,Motor Sequence,,2025.1.1,60.58755386,2025-10-03 16h13.02.580018 +0530
-50,x,59,3,14,v,0,0.9793019,None,,,,,14,3,59,0,662.9614617,,662.9481615,662.9614617,663.9606778,663.9606778,663.9606778,663.9606778,663.9606778,664.9612938,664.9612938,665.947817,,,,,v,0,0.9793019,None,3,1,2025-10-03_16h12.56.243,Motor Sequence,,2025.1.1,60.58755386,2025-10-03 16h13.02.580018 +0530
50,c,60,0,15,c,1,2.8740596,None,,,,,15,0,60,2,665.961847,,665.9481449,665.961847,666.9615632,666.9615632,666.9615632,666.9615632,666.9615632,667.9608865,667.9608865,670.8483339,,,,,c,1,2.8740596,None,3,1,2025-10-03_16h12.56.243,Motor Sequence,,2025.1.1,60.58755386,2025-10-03 16h13.02.580018 +0530
-50,x,61,1,15,v,0,1.9032339,None,,,,,15,1,61,0,670.8616734,,670.8486793,670.8616734,671.8613036,671.8613036,671.8613036,671.8613036,671.8613036,672.8606536,672.8606536,674.7664112,,,,,v,0,1.9032339,None,3,1,2025-10-03_16h12.56.243,Motor Sequence,,2025.1.1,60.58755386,2025-10-03 16h13.02.580018 +0530
-150,z,62,2,15,x,0,0.7376932,None,,,,,15,2,62,3,674.7773614,,674.7667083,674.7773614,675.7772143,675.7772143,675.7772143,675.7772143,675.7772143,676.7776678,676.7776678,677.5313872,,,,,x,0,0.7376932,None,3,1,2025-10-03_16h12.56.243,Motor Sequence,,2025.1.1,60.58755386,2025-10-03 16h13.02.580018 +0530
150,v,63,3,15,z,0,1.9328605,None,,,,,15,3,63,1,677.5440433,,677.5317342,677.5440433,678.5435887,678.5435887,678.5435887,678.5435887,678.5435887,679.5442849,679.5442849,681.4807158,,,,,z,0,1.9328605,None,3,1,2025-10-03_16h12.56.243,Motor Sequence,,2025.1.1,60.58755386,2025-10-03 16h13.02.580018 +0530
150,v,64,0,16,z,0,0.9872183,None,,,,,16,0,64,1,681.4939117,,681.481007,681.4939117,682.4943588,682.4943588,682.4943588,682.4943588,682.4943588,683.4942957,683.4942957,684.4820487,,,,,z,0,0.9872183,None,3,1,2025-10-03_16h12.56.243,Motor Sequence,,2025.1.1,60.58755386,2025-10-03 16h13.02.580018 +0530
-50,x,65,1,16,v,0,1.0684689,None,,,,,16,1,65,0,684.4936598,,684.4823858,684.4936598,685.4938985,685.4938985,685.4938985,685.4938985,685.4938985,686.4933275,686.4933275,687.565256,,,,,v,0,1.0684689,None,3,1,2025-10-03_16h12.56.243,Motor Sequence,,2025.1.1,60.58755386,2025-10-03 16h13.02.580018 +0530
-150,z,66,2,16,x,0,0.4401904,None,,,,,16,2,66,3,687.5774389,,687.565577,687.5774389,688.5775049,688.5775049,688.5775049,688.5775049,688.5775049,689.5768335,689.5768335,690.0301341,,,,,x,0,0.4401904,None,3,1,2025-10-03_16h12.56.243,Motor Sequence,,2025.1.1,60.58755386,2025-10-03 16h13.02.580018 +0530
50,c,67,3,16,c,1,1.6632872,None,,,,,16,3,67,2,690.0438844,,690.0304065,690.0438844,691.0431695,691.0431695,691.0431695,691.0431695,691.0431695,692.0437819,692.0437819,693.7130679,,,,,c,1,1.6632872,None,3,1,2025-10-03_16h12.56.243,Motor Sequence,,2025.1.1,60.58755386,2025-10-03 16h13.02.580018 +0530
-150,z,68,0,17,x,0,0.5980055,None,,,,,17,0,68,3,693.7267765,,693.713257,693.7267765,694.7278478,694.7278478,694.7278478,694.7278478,694.7278478,695.727035,695.727035,696.3300463,,,,,x,0,0.5980055,None,3,1,2025-10-03_16h12.56.243,Motor Sequence,,2025.1.1,60.58755386,2025-10-03 16h13.02.580018 +0530
150,v,69,1,17,z,0,1.4656103,None,,,,,17,1,69,1,696.3438281,,696.3302553,696.3438281,697.3435811,697.3435811,697.3435811,697.3435811,697.3435811,698.3433315,698.3433315,699.8136798,,,,,z,0,1.4656103,None,3,1,2025-10-03_16h12.56.243,Motor Sequence,,2025.1.1,60.58755386,2025-10-03 16h13.02.580018 +0530
50,c,70,2,17,c,1,1.3030558,None,,,,,17,2,70,2,699.8275091,,699.8141013,699.8275091,700.8267755,700.8267755,700.8267755,700.8267755,700.8267755,701.8273261,701.8273261,703.1458586,,,,,c,1,1.3030558,None,3,1,2025-10-03_16h12.56.243,Motor Sequence,,2025.1.1,60.58755386,2025-10-03 16h13.02.580018 +0530
-50,x,71,3,17,c,0,0.9489803,None,,,,,17,3,71,0,703.1595949,,703.1461083,703.1595949,704.1605059,704.1605059,704.1605059,704.1605059,704.1605059,705.1602141,705.1602141,706.114638,,,,,c,0,0.9489803,None,3,1,2025-10-03_16h12.56.243,Motor Sequence,,2025.1.1,60.58755386,2025-10-03 16h13.02.580018 +0530
50,c,72,0,18,c,1,0.9259851,None,,,,,18,0,72,2,706.1273855,,706.1149422,706.1273855,707.1274753,707.1274753,707.1274753,707.1274753,707.1274753,708.1258736,708.1258736,709.0633211,,,,,c,1,0.9259851,None,3,1,2025-10-03_16h12.56.243,Motor Sequence,,2025.1.1,60.58755386,2025-10-03 16h13.02.580018 +0530
-50,x,73,1,18,v,0,1.2141317,None,,,,,18,1,73,0,709.0767254,,709.0637646,709.0767254,710.0773569,710.0773569,710.0773569,710.0773569,710.0773569,711.0765372,711.0765372,712.297054,,,,,v,0,1.2141317,None,3,1,2025-10-03_16h12.56.243,Motor Sequence,,2025.1.1,60.58755386,2025-10-03 16h13.02.580018 +0530
-150,z,74,2,18,x,0,1.1103206,None,,,,,18,2,74,3,712.3094027,,712.2973478,712.3094027,713.3093924,713.3093924,713.3093924,713.3093924,713.3093924,714.309144,714.309144,715.4291133,,,,,x,0,1.1103206,None,3,1,2025-10-03_16h12.56.243,Motor Sequence,,2025.1.1,60.58755386,2025-10-03 16h13.02.580018 +0530
150,v,75,3,18,z,0,1.1160192,None,,,,,18,3,75,1,715.4438154,,715.4293297,715.4438154,716.4437015,716.4437015,716.4437015,716.4437015,716.4437015,717.4433798,717.4433798,718.5624458,,,,,z,0,1.1160192,None,3,1,2025-10-03_16h12.56.243,Motor Sequence,,2025.1.1,60.58755386,2025-10-03 16h13.02.580018 +0530
-150,z,76,0,19,x,0,0.6969336,None,,,,,19,0,76,3,718.5769167,,718.5626503,718.5769167,719.5768143,719.5768143,719.5768143,719.5768143,719.5768143,720.5768313,720.5768313,721.2797185,,,,,x,0,0.6969336,None,3,1,2025-10-03_16h12.56.243,Motor Sequence,,2025.1.1,60.58755386,2025-10-03 16h13.02.580018 +0530
-50,x,77,1,19,v,0,1.4184021,None,,,,,19,1,77,0,721.2939768,,721.2799396,721.2939768,722.29259,722.29259,722.29259,722.29259,722.29259,723.2927115,723.2927115,724.7144978,,,,,v,0,1.4184021,None,3,1,2025-10-03_16h12.56.243,Motor Sequence,,2025.1.1,60.58755386,2025-10-03 16h13.02.580018 +0530
50,c,78,2,19,c,1,0.8510498,None,,,,,19,2,78,2,724.7272883,,724.7148102,724.7272883,725.7266155,725.7266155,725.7266155,725.7266155,725.741909,726.7272002,726.7272002,727.582668,,,,,c,1,0.8510498,None,3,1,2025-10-03_16h12.56.243,Motor Sequence,,2025.1.1,60.58755386,2025-10-03 16h13.02.580018 +0530
150,v,79,3,19,z,0,1.9377881,None,,,,,19,3,79,1,727.5932879,,727.5829995,727.5932879,728.5933883,728.5933883,728.5933883,728.5933883,728.5933883,729.5934318,729.5934318,731.5462299,,,,,z,0,1.9377881,None,3,1,2025-10-03_16h12.56.243,Motor Sequence,,2025.1.1,60.58755386,2025-10-03 16h13.02.580018 +0530
150,v,80,0,20,z,0,2.0646021,None,,,,,20,0,80,1,731.560814,,731.5465259,731.560814,732.560723,732.560723,732.560723,732.560723,732.5769639,733.5608614,733.5608614,735.6307613,,,,,z,0,2.0646021,None,3,1,2025-10-03_16h12.56.243,Motor Sequence,,2025.1.1,60.58755386,2025-10-03 16h13.02.580018 +0530
50,c,81,1,20,c,1,0.7882191,None,,,,,20,1,81,2,735.6437884,,735.6310617,735.6437884,736.6431161,736.6431161,736.6431161,736.6431161,736.6431161,737.6435405,737.6435405,738.4463262,,,,,c,1,0.7882191,None,3,1,2025-10-03_16h12.56.243,Motor Sequence,,2025.1.1,60.58755386,2025-10-03 16h13.02.580018 +0530
-50,x,82,2,20,v,0,1.5972177,None,,,,,20,2,82,0,738.4604377,,738.4466252,738.4604377,739.4596965,739.4596965,739.4596965,739.4596965,739.4596965,740.4598842,740.4598842,742.0645696,,,,,v,0,1.5972177,None,3,1,2025-10-03_16h12.56.243,Motor Sequence,,2025.1.1,60.58755386,2025-10-03 16h13.02.580018 +0530
-150,z,83,3,20,z,1,0.5823641,None,,,,,20,3,83,3,742.0768781,,742.0650706,742.0768781,743.0771145,743.0771145,743.0771145,743.0771145,743.0771145,744.0753653,744.0753653,744.6611561,,,,,z,1,0.5823641,None,3,1,2025-10-03_16h12.56.243,Motor Sequence,,2025.1.1,60.58755386,2025-10-03 16h13.02.580018 +0530
50,c,84,0,21,c,1,0.9423602,None,,,,,21,0,84,2,744.6758749,,744.6613564,744.6758749,745.6601843,745.6601843,745.6601843,745.6601843,745.6763181,746.6764699,746.6764699,747.6297088,,,,,c,1,0.9423602,None,3,1,2025-10-03_16h12.56.243,Motor Sequence,,2025.1.1,60.58755386,2025-10-03 16h13.02.580018 +0530
-150,z,85,1,21,x,0,0.6617845,None,,,,,21,1,85,3,747.6437471,,747.6300054,747.6437471,748.6437654,748.6437654,748.6437654,748.6437654,748.6437654,749.6431262,749.6431262,750.3131748,,,,,x,0,0.6617845,None,3,1,2025-10-03_16h12.56.243,Motor Sequence,,2025.1.1,60.58755386,2025-10-03 16h13.02.580018 +0530
-50,x,86,2,21,v,0,1.9389339,None,,,,,21,2,86,0,750.3266309,,750.3135188,750.3266309,751.3269861,751.3269861,751.3269861,751.3269861,751.3269861,752.3270791,752.3270791,754.2795224,,,,,v,0,1.9389339,None,3,1,2025-10-03_16h12.56.243,Motor Sequence,,2025.1.1,60.58755386,2025-10-03 16h13.02.580018 +0530
150,v,87,3,21,z,0,2.5248739,None,,,,,21,3,87,1,754.2935625,,754.2798232,754.2935625,755.2928393,755.2928393,755.2928393,755.2928393,755.2928393,756.2936168,756.2936168,758.8282614,,,,,z,0,2.5248739,None,3,1,2025-10-03_16h12.56.243,Motor Sequence,,2025.1.1,60.58755386,2025-10-03 16h13.02.580018 +0530
50,c,88,0,22,c,1,1.2688115,None,,,,,22,0,88,2,758.8431299,,758.8284905,758.8431299,759.8437674,759.8437674,759.8437674,759.8437674,759.8437674,760.8421405,760.8421405,762.1143665,,,,,c,1,1.2688115,None,3,1,2025-10-03_16h12.56.243,Motor Sequence,,2025.1.1,60.58755386,2025-10-03 16h13.02.580018 +0530
-50,x,89,1,22,v,0,0.9647834,None,,,,,22,1,89,0,762.1263336,,762.1146734,762.1263336,763.1264848,763.1264848,763.1264848,763.1264848,763.1264848,764.1261736,764.1261736,765.0971342,,,,,v,0,0.9647834,None,3,1,2025-10-03_16h12.56.243,Motor Sequence,,2025.1.1,60.58755386,2025-10-03 16h13.02.580018 +0530
150,v,90,2,22,z,0,1.6576851,None,,,,,22,2,90,1,765.1100454,,765.0974557,765.1100454,766.1098798,766.1098798,766.1098798,766.1098798,766.1098798,767.1098712,767.1098712,768.7798275,,,,,z,0,1.6576851,None,3,1,2025-10-03_16h12.56.243,Motor Sequence,,2025.1.1,60.58755386,2025-10-03 16h13.02.580018 +0530
-150,z,91,3,22,x,0,1.4509599,None,,,,,22,3,91,3,768.7930583,,768.7801551,768.7930583,769.7924502,769.7924502,769.7924502,769.7924502,769.7924502,770.793561,770.793561,772.2480904,,,,,x,0,1.4509599,None,3,1,2025-10-03_16h12.56.243,Motor Sequence,,2025.1.1,60.58755386,2025-10-03 16h13.02.580018 +0530
-150,z,92,0,23,x,0,0.788685,None,,,,,23,0,92,3,772.259289,,772.2484346,772.259289,773.259401,773.259401,773.259401,773.259401,773.259401,774.2600954,774.2600954,775.0633377,,,,,x,0,0.788685,None,3,1,2025-10-03_16h12.56.243,Motor Sequence,,2025.1.1,60.58755386,2025-10-03 16h13.02.580018 +0530
-50,x,93,1,23,v,0,1.0670658,None,,,,,23,1,93,0,775.076884,,775.06377,775.076884,776.0768117,776.0768117,776.0768117,776.0768117,776.0768117,777.0765173,777.0765173,778.1484275,,,,,v,0,1.0670658,None,3,1,2025-10-03_16h12.56.243,Motor Sequence,,2025.1.1,60.58755386,2025-10-03 16h13.02.580018 +0530
150,v,94,2,23,z,0,1.5400404,None,,,,,23,2,94,1,778.1594254,,778.1487895,778.1594254,779.1594712,779.1594712,779.1594712,779.1594712,779.1594712,780.1594422,780.1594422,781.7130346,,,,,z,0,1.5400404,None,3,1,2025-10-03_16h12.56.243,Motor Sequence,,2025.1.1,60.58755386,2025-10-03 16h13.02.580018 +0530
50,c,95,3,23,c,1,2.5694322,None,,,,,23,3,95,2,781.7271054,,781.71334,781.7271054,782.7261519,782.7261519,782.7261519,782.7261519,782.7261519,783.7262312,783.7262312,786.2977837,,,,,c,1,2.5694322,None,3,1,2025-10-03_16h12.56.243,Motor Sequence,,2025.1.1,60.58755386,2025-10-03 16h13.02.580018 +0530
-150,z,96,0,24,x,0,0.5447846,None,,,,,24,0,96,3,786.3094139,,786.2981264,786.3094139,787.3092396,787.3092396,787.3092396,787.3092396,787.3092396,788.308365,788.308365,788.8634527,,,,,x,0,0.5447846,None,3,1,2025-10-03_16h12.56.243,Motor Sequence,,2025.1.1,60.58755386,2025-10-03 16h13.02.580018 +0530
-50,x,97,1,24,v,0,0.7232545,None,,,,,24,1,97,0,788.8762335,,788.8637947,788.8762335,789.8763176,789.8763176,789.8763176,789.8763176,789.8763176,790.8764017,790.8764017,791.6131181,,,,,v,0,0.7232545,None,3,1,2025-10-03_16h12.56.243,Motor Sequence,,2025.1.1,60.58755386,2025-10-03 16h13.02.580018 +0530
50,c,98,2,24,c,1,0.9047476,None,,,,,24,2,98,2,791.6265272,,791.6134382,791.6265272,792.6258412,792.6258412,792.6258412,792.6258412,792.6258412,793.6259906,793.6259906,794.545898,,,,,c,1,0.9047476,None,3,1,2025-10-03_16h12.56.243,Motor Sequence,,2025.1.1,60.58755386,2025-10-03 16h13.02.580018 +0530
150,v,99,3,24,z,0,0.7438191,None,,,,,24,3,99,1,794.5595713,,794.5461877,794.5595713,795.5595886,795.5595886,795.5595886,795.5595886,795.5595886,796.5592906,796.5592906,797.3131832,,,,,z,0,0.7438191,None,3,1,2025-10-03_16h12.56.243,Motor Sequence,,2025.1.1,60.58755386,2025-10-03 16h13.02.580018 +0530
-50,x,100,0,25,c,0,0.3257917,None,,,,,25,0,100,0,797.3258628,,797.3135492,797.3258628,798.325543,798.325543,798.325543,798.325543,798.325543,799.3257805,799.3257805,799.6634713,,,,,c,0,0.3257917,None,3,1,2025-10-03_16h12.56.243,Motor Sequence,,2025.1.1,60.58755386,2025-10-03 16h13.02.580018 +0530
50,c,101,1,25,x,0,0.2341064,None,,,,,25,1,101,2,799.6766264,,799.6637922,799.6766264,800.6761537,800.6761537,800.6761537,800.6761537,800.6761537,801.67607,801.67607,801.9138119,,,,,x,0,0.2341064,None,3,1,2025-10-03_16h12.56.243,Motor Sequence,,2025.1.1,60.58755386,2025-10-03 16h13.02.580018 +0530
150,v,102,2,25,c,0,0.2588019,None,,,,,25,2,102,1,801.9261111,,801.9141394,801.9261111,802.9258696,802.9258696,802.9258696,802.9258696,802.9258696,803.9261754,803.9261754,804.1963889,,,,,c,0,0.2588019,None,3,1,2025-10-03_16h12.56.243,Motor Sequence,,2025.1.1,60.58755386,2025-10-03 16h13.02.580018 +0530
-150,z,103,3,25,z,1,0.1373871,None,,,,,25,3,103,3,804.2100424,,804.1967458,804.2100424,805.209972,805.209972,805.209972,805.209972,805.209972,806.209494,806.209494,806.3629807,,,,,z,1,0.1373871,None,3,1,2025-10-03_16h12.56.243,Motor Sequence,,2025.1.1,60.58755386,2025-10-03 16h13.02.580018 +0530
-50,x,104,0,26,v,0,0.2969297,None,,,,,26,0,104,0,806.3764001,,806.3632759,806.3764001,807.3759785,807.3759785,807.3759785,807.3759785,807.3759785,808.3759315,808.3759315,808.6802818,,,,,v,0,0.2969297,None,3,1,2025-10-03_16h12.56.243,Motor Sequence,,2025.1.1,60.58755386,2025-10-03 16h13.02.580018 +0530
50,c,105,1,26,x,0,0.6851728,None,,,,,26,1,105,2,808.6931935,,808.6806012,808.6931935,809.6926644,809.6926644,809.6926644,809.6926644,809.6926644,810.6932328,810.6932328,811.3802545,,,,,x,0,0.6851728,None,3,1,2025-10-03_16h12.56.243,Motor Sequence,,2025.1.1,60.58755386,2025-10-03 16h13.02.580018 +0530
-150,z,106,2,26,z,1,0.8754161,None,,,,,26,2,106,3,811.3928776,,811.3805573,811.3928776,812.393639,812.393639,812.393639,812.393639,812.393639,813.3930794,813.3930794,814.2796094,,,,,z,1,0.8754161,None,3,1,2025-10-03_16h12.56.243,Motor Sequence,,2025.1.1,60.58755386,2025-10-03 16h13.02.580018 +0530
150,v,107,3,26,c,0,0.6133248,None,,,,,26,3,107,1,814.2933611,,814.2799619,814.2933611,815.2926305,815.2926305,815.2926305,815.2926305,815.2926305,816.2927943,816.2927943,816.9139179,,,,,c,0,0.6133248,None,3,1,2025-10-03_16h12.56.243,Motor Sequence,,2025.1.1,60.58755386,2025-10-03 16h13.02.580018 +0530
150,v,108,0,27,z,0,0.6150372,None,,,,,27,0,108,1,816.9257205,,816.9142498,816.9257205,817.9257215,817.9257215,817.9257215,817.9257215,817.9257215,818.9264453,818.9264453,819.547227,,,,,z,0,0.6150372,None,3,1,2025-10-03_16h12.56.243,Motor Sequence,,2025.1.1,60.58755386,2025-10-03 16h13.02.580018 +0530
50,c,109,1,27,c,1,0.8710592,None,,,,,27,1,109,2,819.5593036,,819.5475804,819.5593036,820.5588501,820.5588501,820.5588501,820.5588501,820.5588501,821.5588635,821.5588635,822.4460104,,,,,c,1,0.8710592,None,3,1,2025-10-03_16h12.56.243,Motor Sequence,,2025.1.1,60.58755386,2025-10-03 16h13.02.580018 +0530
-50,x,110,2,27,v,0,0.2762161,None,,,,,27,2,110,0,822.4596561,,822.4463654,822.4596561,823.459132,823.459132,823.459132,823.459132,823.459132,824.4592347,824.4592347,824.7456524,,,,,v,0,0.2762161,None,3,1,2025-10-03_16h12.56.243,Motor Sequence,,2025.1.1,60.58755386,2025-10-03 16h13.02.580018 +0530
-150,z,111,3,27,c,0,0.2310042,None,,,,,27,3,111,3,824.7601365,,824.7459461,824.7601365,825.7583187,825.7583187,825.7583187,825.7583187,825.7744854,826.7594843,826.7594843,826.996926,,,,,c,0,0.2310042,None,3,1,2025-10-03_16h12.56.243,Motor Sequence,,2025.1.1,60.58755386,2025-10-03 16h13.02.580018 +0530
-50,x,112,0,28,v,0,0.3885822,None,,,,,28,0,112,0,827.0093912,,826.9972322,827.0093912,828.0094697,828.0094697,828.0094697,828.0094697,828.0094697,829.0090577,829.0090577,829.4117453,,,,,v,0,0.3885822,None,3,1,2025-10-03_16h12.56.243,Motor Sequence,,2025.1.1,60.58755386,2025-10-03 16h13.02.580018 +0530
50,c,113,1,28,c,1,1.0306468,None,,,,,28,1,113,2,829.4261381,,829.4120475,829.4261381,830.4256375,830.4256375,830.4256375,830.4256375,830.4256375,831.4256418,831.4256418,832.4640896,,,,,c,1,1.0306468,None,3,1,2025-10-03_16h12.56.243,Motor Sequence,,2025.1.1,60.58755386,2025-10-03 16h13.02.580018 +0530
150,v,114,2,28,z,0,0.639717,None,,,,,28,2,114,1,832.4758362,,832.4644296,832.4758362,833.4760647,833.4760647,833.4760647,833.4760647,833.4760647,834.4756505,834.4756505,835.1296526,,,,,z,0,0.639717,None,3,1,2025-10-03_16h12.56.243,Motor Sequence,,2025.1.1,60.58755386,2025-10-03 16h13.02.580018 +0530
-150,z,115,3,28,v,0,0.2220423,None,,,,,28,3,115,3,835.1425628,,835.1301062,835.1425628,836.1428357,836.1428357,836.1428357,836.1428357,836.1428357,837.1420072,837.1420072,837.378834,,,,,v,0,0.2220423,None,3,1,2025-10-03_16h12.56.243,Motor Sequence,,2025.1.1,60.58755386,2025-10-03 16h13.02.580018 +0530
150,v,116,0,29,z,0,0.5183115,None,,,,,29,0,116,1,837.3919948,,837.3791212,837.3919948,838.3916257,838.3916257,838.3916257,838.3916257,838.3916257,839.3931398,839.3931398,839.9138222,,,,,z,0,0.5183115,None,3,1,2025-10-03_16h12.56.243,Motor Sequence,,2025.1.1,60.58755386,2025-10-03 16h13.02.580018 +0530
-150,z,117,1,29,x,0,0.6921579,None,,,,,29,1,117,3,839.9258396,,839.9141386,839.9258396,840.9253459,840.9253459,840.9253459,840.9253459,840.9253459,841.9258757,841.9258757,842.6294549,,,,,x,0,0.6921579,None,3,1,2025-10-03_16h12.56.243,Motor Sequence,,2025.1.1,60.58755386,2025-10-03 16h13.02.580018 +0530
50,c,118,2,29,v,0,0.5740965,None,,,,,29,2,118,2,842.6430303,,842.6297798,842.6430303,843.6424987,843.6424987,843.6424987,843.6424987,843.6424987,844.6421051,844.6421051,845.2280362,,,,,v,0,0.5740965,None,3,1,2025-10-03_16h12.56.243,Motor Sequence,,2025.1.1,60.58755386,2025-10-03 16h13.02.580018 +0530
-50,x,119,3,29,c,0,0.3524752,None,,,,,29,3,119,0,845.2430438,,845.2282926,845.2430438,846.2261115,846.2261115,846.2261115,846.2261115,846.2417786,847.2418546,847.2418546,847.5965194,,,,,c,0,0.3524752,None,3,1,2025-10-03_16h12.56.243,Motor Sequence,,2025.1.1,60.58755386,2025-10-03 16h13.02.580018 +0530
50,c,120,0,30,z,0,0.4762516,None,,,,,30,0,120,2,847.6091998,,847.5968461,847.6091998,848.6087107,848.6087107,848.6087107,848.6087107,848.6087107,849.6093897,849.6093897,850.0936041,,,,,z,0,0.4762516,None,3,1,2025-10-03_16h12.56.243,Motor Sequence,,2025.1.1,60.58755386,2025-10-03 16h13.02.580018 +0530
-50,x,121,1,30,v,0,0.8374151,None,,,,,30,1,121,0,850.1086496,,850.0937998,850.1086496,851.0933479,851.0933479,851.0933479,851.0933479,851.10864,852.0920353,852.0920353,852.9455678,,,,,v,0,0.8374151,None,3,1,2025-10-03_16h12.56.243,Motor Sequence,,2025.1.1,60.58755386,2025-10-03 16h13.02.580018 +0530
-150,z,122,2,30,c,0,0.2461921,None,,,,,30,2,122,3,852.9595587,,852.945903,852.9595587,853.9587393,853.9587393,853.9587393,853.9587393,853.9587393,854.9587461,854.9587461,855.2120132,,,,,c,0,0.2461921,None,3,1,2025-10-03_16h12.56.243,Motor Sequence,,2025.1.1,60.58755386,2025-10-03 16h13.02.580018 +0530
150,v,123,3,30,z,0,1.2251736,None,,,,,30,3,123,1,855.2250975,,855.212304,855.2250975,856.2249362,856.2249362,856.2249362,856.2249362,856.2249362,857.2250611,857.2250611,858.4604488,,,,,z,0,1.2251736,None,3,1,2025-10-03_16h12.56.243,Motor Sequence,,2025.1.1,60.58755386,2025-10-03 16h13.02.580018 +0530
-150,z,124,0,31,x,0,0.7768553,None,,,,,31,0,124,3,858.4750345,,858.4607102,858.4750345,859.4755532,859.4755532,859.4755532,859.4755532,859.4755532,860.4755519,860.4755519,861.2630032,,,,,x,0,0.7768553,None,3,1,2025-10-03_16h12.56.243,Motor Sequence,,2025.1.1,60.58755386,2025-10-03 16h13.02.580018 +0530
50,c,125,1,31,c,1,3.0442602,None,,,,,31,1,125,2,861.2759712,,861.2633108,861.2759712,862.2755312,862.2755312,862.2755312,862.2755312,862.2755312,863.2751416,863.2751416,866.3283743,,,,,c,1,3.0442602,None,3,1,2025-10-03_16h12.56.243,Motor Sequence,,2025.1.1,60.58755386,2025-10-03 16h13.02.580018 +0530
150,v,126,2,31,z,0,0.8881099,None,,,,,31,2,126,1,866.3432129,,866.3285671,866.3432129,867.3423778,867.3423778,867.3423778,867.3423778,867.3584943,868.3422663,868.3422663,869.2448917,,,,,z,0,0.8881099,None,3,1,2025-10-03_16h12.56.243,Motor Sequence,,2025.1.1,60.58755386,2025-10-03 16h13.02.580018 +0530
-50,x,127,3,31,v,0,0.3297599,None,,,,,31,3,127,0,869.2582215,,869.2451675,869.2582215,870.2588939,870.2588939,870.2588939,870.2588939,870.2588939,871.2590506,871.2590506,871.5957294,,,,,v,0,0.3297599,None,3,1,2025-10-03_16h12.56.243,Motor Sequence,,2025.1.1,60.58755386,2025-10-03 16h13.02.580018 +0530
150,v,128,0,32,z,0,0.6526173,None,,,,,32,0,128,1,871.6088393,,871.5960393,871.6088393,872.6081923,872.6081923,872.6081923,872.6081923,872.6081923,873.6083549,873.6083549,874.2637637,,,,,z,0,0.6526173,None,3,1,2025-10-03_16h12.56.243,Motor Sequence,,2025.1.1,60.58755386,2025-10-03 16h13.02.580018 +0530
-150,z,129,1,32,x,0,0.6322511,None,,,,,32,1,129,3,874.2753406,,874.264089,874.2753406,875.2749594,875.2749594,875.2749594,875.2749594,875.2749594,876.2750798,876.2750798,876.9131574,,,,,x,0,0.6322511,None,3,1,2025-10-03_16h12.56.243,Motor Sequence,,2025.1.1,60.58755386,2025-10-03 16h13.02.580018 +0530
50,c,130,2,32,c,1,2.3220269,None,,,,,32,2,130,2,876.9251765,,876.9135149,876.9251765,877.9250833,877.9250833,877.9250833,877.9250833,877.9250833,878.9252119,878.9252119,881.261602,,,,,c,1,2.3220269,None,3,1,2025-10-03_16h12.56.243,Motor Sequence,,2025.1.1,60.58755386,2025-10-03 16h13.02.580018 +0530
