thisN,thisTrialN,thisRepN,mouse.x,mouse.y,mouse.leftButton,mouse.midButton,mouse.rightButton,mouse.time,mouse.clicked_name,trials.thisRepN,trials.thisTrialN,trials.thisN,trials.thisIndex,thisRow.t,notes,num_distr,trial.started,fixation.started,target.started,mouse.started,trial.stopped,trials.mouse.x,trials.mouse.y,trials.mouse.leftButton,trials.mouse.midButton,trials.mouse.rightButton,trials.mouse.time,trials.mouse.clicked_name,participant,session,date,expName,expVersion,psychopyVersion,frameRate,expStart,
0,0,0,[np.float64(-0.19907407407407407)],[np.float64(0.11944444444444445)],[1],[0],[0],[1.4836369000840932],['target'],0,0,0,0,0.029458099976181984,,10,0.020439699990674853,0.029458099976181984,0.029458099976181984,0.02045769989490509,1.5042127999477088,[np.float64(-0.19907407407407407)],[np.float64(0.11944444444444445)],[1],[0],[0],[1.4836369000840932],['target'],3,001,2025-09-30_15h49.08.701,Visual Search,,2025.1.1,59.91374820880244,2025-09-30 15h49.20.577847 +0530,
1,0,1,[np.float64(0.05925925925925926)],[np.float64(0.1648148148148148)],[1],[0],[0],[1.0514330000150949],['target'],1,0,1,0,1.5203048998955637,,5,1.5162930998485535,1.5203048998955637,1.5203048998955637,0.011774200014770031,2.5677825999446213,[np.float64(0.05925925925925926)],[np.float64(0.1648148148148148)],[1],[0],[0],[1.0514330000150949],['target'],3,001,2025-09-30_15h49.08.701,Visual Search,,2025.1.1,59.91374820880244,2025-09-30 15h49.20.577847 +0530,
2,0,2,[np.float64(0.39166666666666666)],[np.float64(-0.09722222222222222)],[1],[0],[0],[1.3124988998752087],['target'],2,0,2,0,2.5812015999108553,,5,2.5747174997814,2.5812015999108553,2.5812015999108553,0.006840999936684966,3.8873176998458803,[np.float64(0.39166666666666666)],[np.float64(-0.09722222222222222)],[1],[0],[0],[1.3124988998752087],['target'],3,001,2025-09-30_15h49.08.701,Visual Search,,2025.1.1,59.91374820880244,2025-09-30 15h49.20.577847 +0530,
3,0,3,[np.float64(-0.26851851851851855)],[np.float64(-0.025)],[1],[0],[0],[1.2684156000614166],[None],3,0,3,0,3.9082270998042077,,10,3.902348699979484,3.9082270998042077,3.9082270998042077,0.01486500003375113,5.170893599977717,[np.float64(-0.26851851851851855)],[np.float64(-0.025)],[1],[0],[0],[1.2684156000614166],[None],3,001,2025-09-30_15h49.08.701,Visual Search,,2025.1.1,59.91374820880244,2025-09-30 15h49.20.577847 +0530,
4,0,4,[np.float64(0.2601851851851852)],[np.float64(-0.4083333333333333)],[1],[0],[0],[1.5397900000680238],['target'],4,0,4,0,5.184542999835685,,5,5.18041479983367,5.184542999835685,5.184542999835685,0.009295300114899874,6.720325300004333,[np.float64(0.2601851851851852)],[np.float64(-0.4083333333333333)],[1],[0],[0],[1.5397900000680238],['target'],3,001,2025-09-30_15h49.08.701,Visual Search,,2025.1.1,59.91374820880244,2025-09-30 15h49.20.577847 +0530,
5,0,5,[np.float64(-0.41574074074074074)],[np.float64(0.05092592592592592)],[1],[0],[0],[1.206416199915111],['target'],5,0,5,0,6.734003599965945,,5,6.729693999979645,6.734003599965945,6.734003599965945,0.009201700100675225,7.93619369994849,[np.float64(-0.41574074074074074)],[np.float64(0.05092592592592592)],[1],[0],[0],[1.206416199915111],['target'],3,001,2025-09-30_15h49.08.701,Visual Search,,2025.1.1,59.91374820880244,2025-09-30 15h49.20.577847 +0530,
6,0,6,[np.float64(-0.037037037037037035)],[np.float64(0.4842592592592593)],[1],[0],[0],[1.2243719999678433],['target'],6,0,6,0,7.949629799928516,,5,7.94476559991017,7.949629799928516,7.949629799928516,0.00844080001115799,9.169250899925828,[np.float64(-0.037037037037037035)],[np.float64(0.4842592592592593)],[1],[0],[0],[1.2243719999678433],['target'],3,001,2025-09-30_15h49.08.701,Visual Search,,2025.1.1,59.91374820880244,2025-09-30 15h49.20.577847 +0530,
7,0,7,[np.float64(0.09351851851851851)],[np.float64(-0.04537037037037037)],[1],[0],[0],[1.1922530001029372],['target'],7,0,7,0,9.182537799933925,,5,9.178001399850473,9.182537799933925,9.182537799933925,0.008585999952629209,10.370386499911547,[np.float64(0.09351851851851851)],[np.float64(-0.04537037037037037)],[1],[0],[0],[1.1922530001029372],['target'],3,001,2025-09-30_15h49.08.701,Visual Search,,2025.1.1,59.91374820880244,2025-09-30 15h49.20.577847 +0530,
8,0,8,[np.float64(0.30277777777777776)],[np.float64(0.07592592592592592)],[1],[0],[0],[1.3019856000319123],['target'],8,0,8,0,10.384727199794725,,5,10.380361799849197,10.384727199794725,10.384727199794725,0.009762299945577979,11.682461299933493,[np.float64(0.30277777777777776)],[np.float64(0.07592592592592592)],[1],[0],[0],[1.3019856000319123],['target'],3,001,2025-09-30_15h49.08.701,Visual Search,,2025.1.1,59.91374820880244,2025-09-30 15h49.20.577847 +0530,
9,0,9,[np.float64(0.04722222222222222)],[np.float64(0.4787037037037037)],[1],[0],[0],[1.5529100000858307],['target'],9,0,9,0,11.704239499988034,,10,11.69861530000344,11.704239499988034,11.704239499988034,0.01595870009623468,13.251606999896467,[np.float64(0.04722222222222222)],[np.float64(0.4787037037037037)],[1],[0],[0],[1.5529100000858307],['target'],3,001,2025-09-30_15h49.08.701,Visual Search,,2025.1.1,59.91374820880244,2025-09-30 15h49.20.577847 +0530,
10,0,10,[np.float64(-0.2675925925925926)],[np.float64(-0.4083333333333333)],[1],[0],[0],[1.620349100092426],['target'],10,0,10,0,13.2715031998232,,10,13.265620099846274,13.2715031998232,13.2715031998232,0.013860200066119432,14.88608769979328,[np.float64(-0.2675925925925926)],[np.float64(-0.4083333333333333)],[1],[0],[0],[1.620349100092426],['target'],3,001,2025-09-30_15h49.08.701,Visual Search,,2025.1.1,59.91374820880244,2025-09-30 15h49.20.577847 +0530,
11,0,11,[np.float64(-0.43703703703703706)],[np.float64(-0.3712962962962963)],[1],[0],[0],[1.1093421999830753],['target'],11,0,11,0,14.899898099945858,,5,14.89541029999964,14.899898099945858,14.899898099945858,0.009105300065129995,16.0048475000076,[np.float64(-0.43703703703703706)],[np.float64(-0.3712962962962963)],[1],[0],[0],[1.1093421999830753],['target'],3,001,2025-09-30_15h49.08.701,Visual Search,,2025.1.1,59.91374820880244,2025-09-30 15h49.20.577847 +0530,
12,0,12,[np.float64(-0.023148148148148147)],[np.float64(0.2037037037037037)],[1],[0],[0],[1.33222970017232],['target'],12,0,12,0,16.025858899811283,,10,16.019615900004283,16.025858899811283,16.025858899811283,0.014614200219511986,17.351927199866623,[np.float64(-0.023148148148148147)],[np.float64(0.2037037037037037)],[1],[0],[0],[1.33222970017232],['target'],3,001,2025-09-30_15h49.08.701,Visual Search,,2025.1.1,59.91374820880244,2025-09-30 15h49.20.577847 +0530,
13,0,13,[np.float64(-0.43703703703703706)],[np.float64(0.009259259259259259)],[1],[0],[0],[1.3604655000381172],['target'],13,0,13,0,17.3640301998239,,5,17.360033500008285,17.3640301998239,17.3640301998239,0.007927000056952238,18.720626199850813,[np.float64(-0.43703703703703706)],[np.float64(0.009259259259259259)],[1],[0],[0],[1.3604655000381172],['target'],3,001,2025-09-30_15h49.08.701,Visual Search,,2025.1.1,59.91374820880244,2025-09-30 15h49.20.577847 +0530,
14,0,14,[np.float64(0.18796296296296297)],[np.float64(0.3648148148148148)],[1],[0],[0],[1.2417715000919998],['target'],14,0,14,0,18.734056299785152,,5,18.729910699883476,18.734056299785152,18.734056299785152,0.009102900046855211,19.97177919978276,[np.float64(0.18796296296296297)],[np.float64(0.3648148148148148)],[1],[0],[0],[1.2417715000919998],['target'],3,001,2025-09-30_15h49.08.701,Visual Search,,2025.1.1,59.91374820880244,2025-09-30 15h49.20.577847 +0530,
15,0,15,[np.float64(0.25)],[np.float64(0.3277777777777778)],[1],[0],[0],[2.0380478000734],['target'],15,0,15,0,19.98569449991919,,5,19.981055999873206,19.98569449991919,19.98569449991919,0.009115200024098158,22.01922559994273,[np.float64(0.25)],[np.float64(0.3277777777777778)],[1],[0],[0],[2.0380478000734],['target'],3,001,2025-09-30_15h49.08.701,Visual Search,,2025.1.1,59.91374820880244,2025-09-30 15h49.20.577847 +0530,
16,0,16,[np.float64(0.45740740740740743)],[np.float64(-0.026851851851851852)],[1],[0],[0],[1.198706700000912],['target'],16,0,16,0,22.043106199940667,,10,22.037068199831992,22.043106199940667,22.043106199940667,0.01762799988500774,23.235866999952123,[np.float64(0.45740740740740743)],[np.float64(-0.026851851851851852)],[1],[0],[0],[1.198706700000912],['target'],3,001,2025-09-30_15h49.08.701,Visual Search,,2025.1.1,59.91374820880244,2025-09-30 15h49.20.577847 +0530,
17,0,17,[np.float64(0.4166666666666667)],[np.float64(0.4222222222222222)],[1],[0],[0],[1.5348181000445038],['target'],17,0,17,0,23.25740659981966,,10,23.251578699797392,23.25740659981966,23.25740659981966,0.015480599831789732,24.786501799942926,[np.float64(0.4166666666666667)],[np.float64(0.4222222222222222)],[1],[0],[0],[1.5348181000445038],['target'],3,001,2025-09-30_15h49.08.701,Visual Search,,2025.1.1,59.91374820880244,2025-09-30 15h49.20.577847 +0530,
18,0,18,[np.float64(0.3907407407407407)],[np.float64(0.04351851851851852)],[1],[0],[0],[1.11845439998433],['target'],18,0,18,0,24.807564199902117,,10,24.801518599968404,24.807564199902117,24.807564199902117,0.014815500006079674,25.920066899852827,[np.float64(0.3907407407407407)],[np.float64(0.04351851851851852)],[1],[0],[0],[1.11845439998433],['target'],3,001,2025-09-30_15h49.08.701,Visual Search,,2025.1.1,59.91374820880244,2025-09-30 15h49.20.577847 +0530,
19,0,19,[np.float64(-0.3416666666666667)],[np.float64(0.18611111111111112)],[1],[0],[0],[1.2467119998764247],['target'],19,0,19,0,25.94277169997804,,10,25.936965599888936,25.94277169997804,25.94277169997804,0.01670840010046959,27.183741899905726,[np.float64(-0.3416666666666667)],[np.float64(0.18611111111111112)],[1],[0],[0],[1.2467119998764247],['target'],3,001,2025-09-30_15h49.08.701,Visual Search,,2025.1.1,59.91374820880244,2025-09-30 15h49.20.577847 +0530,
20,0,20,[np.float64(0.2518518518518518)],[np.float64(-0.287962962962963)],[1],[0],[0],[1.3089411000255495],['target'],20,0,20,0,27.197625799803063,,5,27.19353979988955,27.197625799803063,27.197625799803063,0.00966839981265366,28.50258299987763,[np.float64(0.2518518518518518)],[np.float64(-0.287962962962963)],[1],[0],[0],[1.3089411000255495],['target'],3,001,2025-09-30_15h49.08.701,Visual Search,,2025.1.1,59.91374820880244,2025-09-30 15h49.20.577847 +0530,
21,0,21,[np.float64(0.23333333333333334)],[np.float64(-0.07037037037037037)],[1],[0],[0],[1.164745300076902],['target'],21,0,21,0,28.523479499854147,,10,28.51771459984593,28.523479499854147,28.523479499854147,0.014955500140786171,29.682566199917346,[np.float64(0.23333333333333334)],[np.float64(-0.07037037037037037)],[1],[0],[0],[1.164745300076902],['target'],3,001,2025-09-30_15h49.08.701,Visual Search,,2025.1.1,59.91374820880244,2025-09-30 15h49.20.577847 +0530,
22,0,22,[np.float64(0.14166666666666666)],[np.float64(0.2712962962962963)],[1],[0],[0],[1.1772117000073195],['target'],22,0,22,0,29.697523599956185,,5,29.691573099931702,29.697523599956185,29.697523599956185,0.008780600037425756,30.86887629982084,[np.float64(0.14166666666666666)],[np.float64(0.2712962962962963)],[1],[0],[0],[1.1772117000073195],['target'],3,001,2025-09-30_15h49.08.701,Visual Search,,2025.1.1,59.91374820880244,2025-09-30 15h49.20.577847 +0530,
23,0,23,[np.float64(-0.4064814814814815)],[np.float64(-0.32685185185185184)],[1],[0],[0],[1.7840313999913633],['target'],23,0,23,0,30.89093969995156,,10,30.884901799960062,30.89093969995156,30.89093969995156,0.01586179994046688,32.669027499854565,[np.float64(-0.4064814814814815)],[np.float64(-0.32685185185185184)],[1],[0],[0],[1.7840313999913633],['target'],3,001,2025-09-30_15h49.08.701,Visual Search,,2025.1.1,59.91374820880244,2025-09-30 15h49.20.577847 +0530,
24,0,24,[np.float64(-0.38796296296296295)],[np.float64(0.04259259259259259)],[1],[0],[0],[1.4483198001980782],['target'],24,0,24,0,32.68959889980033,,10,32.683768699876964,32.68959889980033,32.68959889980033,0.014547999948263168,34.1321782998275,[np.float64(-0.38796296296296295)],[np.float64(0.04259259259259259)],[1],[0],[0],[1.4483198001980782],['target'],3,001,2025-09-30_15h49.08.701,Visual Search,,2025.1.1,59.91374820880244,2025-09-30 15h49.20.577847 +0530,
25,0,25,[np.float64(0.25277777777777777)],[np.float64(0.06388888888888888)],[1],[0],[0],[1.3424885000567883],['target'],25,0,25,0,34.14711739984341,,5,34.142513799946755,34.14711739984341,34.14711739984341,0.010128699941560626,35.48510229983367,[np.float64(0.25277777777777777)],[np.float64(0.06388888888888888)],[1],[0],[0],[1.3424885000567883],['target'],3,001,2025-09-30_15h49.08.701,Visual Search,,2025.1.1,59.91374820880244,2025-09-30 15h49.20.577847 +0530,
26,0,26,[np.float64(0.23333333333333334)],[np.float64(0.3611111111111111)],[1],[0],[0],[1.4086258998140693],['target'],26,0,26,0,35.499017799971625,,5,35.49458019994199,35.499017799971625,35.499017799971625,0.009311799891293049,36.903399999951944,[np.float64(0.23333333333333334)],[np.float64(0.3611111111111111)],[1],[0],[0],[1.4086258998140693],['target'],3,001,2025-09-30_15h49.08.701,Visual Search,,2025.1.1,59.91374820880244,2025-09-30 15h49.20.577847 +0530,
27,0,27,[np.float64(0.3685185185185185)],[np.float64(0.1175925925925926)],[1],[0],[0],[1.1338814999908209],['target'],27,0,27,0,36.91865639993921,,5,36.91458179987967,36.91865639993921,36.91865639993921,0.010624000104144216,38.04858099995181,[np.float64(0.3685185185185185)],[np.float64(0.1175925925925926)],[1],[0],[0],[1.1338814999908209],['target'],3,001,2025-09-30_15h49.08.701,Visual Search,,2025.1.1,59.91374820880244,2025-09-30 15h49.20.577847 +0530,
28,0,28,[np.float64(0.23981481481481481)],[np.float64(0.3212962962962963)],[1],[0],[0],[1.1537105001043528],['target'],28,0,28,0,38.07322999997996,,10,38.06712009990588,38.07322999997996,38.07322999997996,0.0183226999361068,39.22092669992708,[np.float64(0.23981481481481481)],[np.float64(0.3212962962962963)],[1],[0],[0],[1.1537105001043528],['target'],3,001,2025-09-30_15h49.08.701,Visual Search,,2025.1.1,59.91374820880244,2025-09-30 15h49.20.577847 +0530,
29,0,29,[np.float64(-0.3814814814814815)],[np.float64(0.42777777777777776)],[1],[0],[0],[1.5969182001426816],['target'],29,0,29,0,39.24508639983833,,10,39.23914059996605,39.24508639983833,39.24508639983833,0.01801180001348257,40.83616769989021,[np.float64(-0.3814814814814815)],[np.float64(0.42777777777777776)],[1],[0],[0],[1.5969182001426816],['target'],3,001,2025-09-30_15h49.08.701,Visual Search,,2025.1.1,59.91374820880244,2025-09-30 15h49.20.577847 +0530,
30,0,30,[np.float64(-0.3925925925925926)],[np.float64(0.4740740740740741)],[1],[0],[0],[1.5316612001042813],['target'],30,0,30,0,40.85673150001094,,10,40.850949899991974,40.85673150001094,40.85673150001094,0.014582199975848198,42.38272239989601,[np.float64(-0.3925925925925926)],[np.float64(0.4740740740740741)],[1],[0],[0],[1.5316612001042813],['target'],3,001,2025-09-30_15h49.08.701,Visual Search,,2025.1.1,59.91374820880244,2025-09-30 15h49.20.577847 +0530,
31,0,31,[np.float64(-0.28888888888888886)],[np.float64(-0.41388888888888886)],[1],[0],[0],[1.771390400128439],['target'],31,0,31,0,42.40380869992077,,10,42.39816819992848,42.40380869992077,42.40380869992077,0.015227800002321601,44.169652599841356,[np.float64(-0.28888888888888886)],[np.float64(-0.41388888888888886)],[1],[0],[0],[1.771390400128439],['target'],3,001,2025-09-30_15h49.08.701,Visual Search,,2025.1.1,59.91374820880244,2025-09-30 15h49.20.577847 +0530,
32,0,32,[np.float64(0.3074074074074074)],[np.float64(0.33425925925925926)],[1],[0],[0],[1.2572612999938428],['target'],32,0,32,0,44.1836642997805,,5,44.17945829988457,44.1836642997805,44.1836642997805,0.009616200113669038,45.436865699943155,[np.float64(0.3074074074074074)],[np.float64(0.33425925925925926)],[1],[0],[0],[1.2572612999938428],['target'],3,001,2025-09-30_15h49.08.701,Visual Search,,2025.1.1,59.91374820880244,2025-09-30 15h49.20.577847 +0530,
33,0,33,[np.float64(-0.15)],[np.float64(-0.3037037037037037)],[1],[0],[0],[1.2386894999071956],['target'],33,0,33,0,45.45104569988325,,5,45.44704969995655,45.45104569988325,45.45104569988325,0.00995650002732873,46.685842799954116,[np.float64(-0.15)],[np.float64(-0.3037037037037037)],[1],[0],[0],[1.2386894999071956],['target'],3,001,2025-09-30_15h49.08.701,Visual Search,,2025.1.1,59.91374820880244,2025-09-30 15h49.20.577847 +0530,
34,0,34,[np.float64(0.3138888888888889)],[np.float64(0.3037037037037037)],[1],[0],[0],[1.2018043999560177],['target'],34,0,34,0,46.70892759994604,,10,46.702807599911466,46.70892759994604,46.70892759994604,0.016801099991425872,47.90472409990616,[np.float64(0.3138888888888889)],[np.float64(0.3037037037037037)],[1],[0],[0],[1.2018043999560177],['target'],3,001,2025-09-30_15h49.08.701,Visual Search,,2025.1.1,59.91374820880244,2025-09-30 15h49.20.577847 +0530,
35,0,35,[np.float64(-0.22962962962962963)],[np.float64(-0.08888888888888889)],[1],[0],[0],[1.1811967000830919],['target'],35,0,35,0,47.92619999987073,,10,47.92024099989794,47.92619999987073,47.92619999987073,0.015276100020855665,49.101504399906844,[np.float64(-0.22962962962962963)],[np.float64(-0.08888888888888889)],[1],[0],[0],[1.1811967000830919],['target'],3,001,2025-09-30_15h49.08.701,Visual Search,,2025.1.1,59.91374820880244,2025-09-30 15h49.20.577847 +0530,
36,0,36,[np.float64(-0.17962962962962964)],[np.float64(0.262037037037037)],[1],[0],[0],[1.0936698000878096],['target'],36,0,36,0,49.11366579984315,,5,49.109457599930465,49.11366579984315,49.11366579984315,0.007805999834090471,50.20322799985297,[np.float64(-0.17962962962962964)],[np.float64(0.262037037037037)],[1],[0],[0],[1.0936698000878096],['target'],3,001,2025-09-30_15h49.08.701,Visual Search,,2025.1.1,59.91374820880244,2025-09-30 15h49.20.577847 +0530,
37,0,37,[np.float64(-0.412962962962963)],[np.float64(0.3277777777777778)],[1],[0],[0],[1.1736073999200016],['target'],37,0,37,0,50.216890699928626,,5,50.21243809978478,50.216890699928626,50.216890699928626,0.009032200090587139,51.38615179993212,[np.float64(-0.412962962962963)],[np.float64(0.3277777777777778)],[1],[0],[0],[1.1736073999200016],['target'],3,001,2025-09-30_15h49.08.701,Visual Search,,2025.1.1,59.91374820880244,2025-09-30 15h49.20.577847 +0530,
38,0,38,[np.float64(-0.4861111111111111)],[np.float64(-0.03148148148148148)],[1],[0],[0],[0.9520801999606192],['target'],38,0,38,0,51.40784289990552,,10,51.402037099935114,51.40784289990552,51.40784289990552,0.015683799982070923,52.35421539982781,[np.float64(-0.4861111111111111)],[np.float64(-0.03148148148148148)],[1],[0],[0],[0.9520801999606192],['target'],3,001,2025-09-30_15h49.08.701,Visual Search,,2025.1.1,59.91374820880244,2025-09-30 15h49.20.577847 +0530,
39,0,39,[np.float64(-0.43333333333333335)],[np.float64(-0.15462962962962962)],[1],[0],[0],[1.2342155000660568],['target'],39,0,39,0,52.3756821998395,,10,52.36954089999199,52.3756821998395,52.3756821998395,0.015123399905860424,53.603859699796885,[np.float64(-0.43333333333333335)],[np.float64(-0.15462962962962962)],[1],[0],[0],[1.2342155000660568],['target'],3,001,2025-09-30_15h49.08.701,Visual Search,,2025.1.1,59.91374820880244,2025-09-30 15h49.20.577847 +0530,
40,0,40,[np.float64(0.1824074074074074)],[np.float64(-0.21851851851851853)],[1],[0],[0],[1.1055976999923587],['target'],40,0,40,0,53.6183705998119,,5,53.61367859994061,53.6183705998119,53.6183705998119,0.009611600078642368,54.719390499871224,[np.float64(0.1824074074074074)],[np.float64(-0.21851851851851853)],[1],[0],[0],[1.1055976999923587],['target'],3,001,2025-09-30_15h49.08.701,Visual Search,,2025.1.1,59.91374820880244,2025-09-30 15h49.20.577847 +0530,
41,0,41,[np.float64(0.14166666666666666)],[np.float64(-0.39351851851851855)],[1],[0],[0],[1.4864892000332475],['target'],41,0,41,0,54.73341829981655,,5,54.72917820001021,54.73341829981655,54.73341829981655,0.009586700005456805,56.21571239992045,[np.float64(0.14166666666666666)],[np.float64(-0.39351851851851855)],[1],[0],[0],[1.4864892000332475],['target'],3,001,2025-09-30_15h49.08.701,Visual Search,,2025.1.1,59.91374820880244,2025-09-30 15h49.20.577847 +0530,
42,0,42,[np.float64(0.1675925925925926)],[np.float64(-0.3175925925925926)],[1],[0],[0],[1.2077393000945449],['target'],42,0,42,0,56.23041639989242,,5,56.224042899906635,56.23041639989242,56.23041639989242,0.008255699882283807,57.4318547998555,[np.float64(0.1675925925925926)],[np.float64(-0.3175925925925926)],[1],[0],[0],[1.2077393000945449],['target'],3,001,2025-09-30_15h49.08.701,Visual Search,,2025.1.1,59.91374820880244,2025-09-30 15h49.20.577847 +0530,
43,0,43,[np.float64(-0.44351851851851853)],[np.float64(-0.003703703703703704)],[1],[0],[0],[1.1699164998717606],['target'],43,0,43,0,57.4546167999506,,10,57.4487094997894,57.4546167999506,57.4546167999506,0.016725700115785003,58.61871049995534,[np.float64(-0.44351851851851853)],[np.float64(-0.003703703703703704)],[1],[0],[0],[1.1699164998717606],['target'],3,001,2025-09-30_15h49.08.701,Visual Search,,2025.1.1,59.91374820880244,2025-09-30 15h49.20.577847 +0530,
44,0,44,[np.float64(0.4601851851851852)],[np.float64(0.13148148148148148)],[1],[0],[0],[1.467162200016901],[None],44,0,44,0,58.64068189985119,,10,58.63479889999144,58.64068189985119,58.64068189985119,0.015929499873891473,60.102046199841425,[np.float64(0.4601851851851852)],[np.float64(0.13148148148148148)],[1],[0],[0],[1.467162200016901],[None],3,001,2025-09-30_15h49.08.701,Visual Search,,2025.1.1,59.91374820880244,2025-09-30 15h49.20.577847 +0530,
45,0,45,[np.float64(-0.3101851851851852)],[np.float64(0.25925925925925924)],[1],[0],[0],[1.2686952000949532],[None],45,0,45,0,60.11826329980977,,5,60.113773999968544,60.11826329980977,60.11826329980977,0.011549900053068995,61.38258649990894,[np.float64(-0.3101851851851852)],[np.float64(0.25925925925925924)],[1],[0],[0],[1.2686952000949532],[None],3,001,2025-09-30_15h49.08.701,Visual Search,,2025.1.1,59.91374820880244,2025-09-30 15h49.20.577847 +0530,
46,0,46,[np.float64(-0.41388888888888886)],[np.float64(0.3398148148148148)],[1],[0],[0],[1.017978799995035],[None],46,0,46,0,61.40564449992962,,10,61.39977449993603,61.40564449992962,61.40564449992962,0.016987300012260675,62.41787689994089,[np.float64(-0.41388888888888886)],[np.float64(0.3398148148148148)],[1],[0],[0],[1.017978799995035],[None],3,001,2025-09-30_15h49.08.701,Visual Search,,2025.1.1,59.91374820880244,2025-09-30 15h49.20.577847 +0530,
47,0,47,[np.float64(0.36944444444444446)],[np.float64(0.14722222222222223)],[1],[0],[0],[1.25449339998886],['target'],47,0,47,0,62.432401299942285,,5,62.42832969990559,62.432401299942285,62.432401299942285,0.010201100027188659,63.68297029985115,[np.float64(0.36944444444444446)],[np.float64(0.14722222222222223)],[1],[0],[0],[1.25449339998886],['target'],3,001,2025-09-30_15h49.08.701,Visual Search,,2025.1.1,59.91374820880244,2025-09-30 15h49.20.577847 +0530,
48,0,48,[np.float64(-0.20833333333333334)],[np.float64(0.0824074074074074)],[1],[0],[0],[1.3004309998359531],['target'],48,0,48,0,63.70661949994974,,10,63.70004729996435,63.70661949994974,63.70661949994974,0.01682060002349317,65.00056379986927,[np.float64(-0.20833333333333334)],[np.float64(0.0824074074074074)],[1],[0],[0],[1.3004309998359531],['target'],3,001,2025-09-30_15h49.08.701,Visual Search,,2025.1.1,59.91374820880244,2025-09-30 15h49.20.577847 +0530,
49,0,49,[np.float64(-0.3675925925925926)],[np.float64(-0.3398148148148148)],[1],[0],[0],[1.270378899993375],['target'],49,0,49,0,65.02153939986601,,10,65.01573769981042,65.02153939986601,65.02153939986601,0.01499990001320839,66.28621689998545,[np.float64(-0.3675925925925926)],[np.float64(-0.3398148148148148)],[1],[0],[0],[1.270378899993375],['target'],3,001,2025-09-30_15h49.08.701,Visual Search,,2025.1.1,59.91374820880244,2025-09-30 15h49.20.577847 +0530,
50,0,50,[np.float64(-0.16666666666666666)],[np.float64(0.3296296296296296)],[1],[0],[0],[1.3073108000680804],['target'],50,0,50,0,66.29896199982613,,5,66.29486929997802,66.29896199982613,66.29896199982613,0.008450299967080355,67.60227879998274,[np.float64(-0.16666666666666666)],[np.float64(0.3296296296296296)],[1],[0],[0],[1.3073108000680804],['target'],3,001,2025-09-30_15h49.08.701,Visual Search,,2025.1.1,59.91374820880244,2025-09-30 15h49.20.577847 +0530,
51,0,51,[np.float64(-0.075)],[np.float64(-0.06851851851851852)],[1],[0],[0],[1.1859579000156373],['target'],51,0,51,0,67.62363479984924,,10,67.61754209990613,67.62363479984924,67.62363479984924,0.015068199951201677,68.80361389997415,[np.float64(-0.075)],[np.float64(-0.06851851851851852)],[1],[0],[0],[1.1859579000156373],['target'],3,001,2025-09-30_15h49.08.701,Visual Search,,2025.1.1,59.91374820880244,2025-09-30 15h49.20.577847 +0530,
52,0,52,[np.float64(0.28703703703703703)],[np.float64(0.1287037037037037)],[1],[0],[0],[1.2672200999222696],['target'],52,0,52,0,68.82504049991257,,10,68.81919259997085,68.82504049991257,68.82504049991257,0.015362899983301759,70.08651389996521,[np.float64(0.28703703703703703)],[np.float64(0.1287037037037037)],[1],[0],[0],[1.2672200999222696],['target'],3,001,2025-09-30_15h49.08.701,Visual Search,,2025.1.1,59.91374820880244,2025-09-30 15h49.20.577847 +0530,
53,0,53,[np.float64(0.30925925925925923)],[np.float64(-0.10833333333333334)],[1],[0],[0],[1.2858371001202613],['target'],53,0,53,0,70.09987439983524,,5,70.09567109984346,70.09987439983524,70.09987439983524,0.00895190006121993,71.38162159989588,[np.float64(0.30925925925925923)],[np.float64(-0.10833333333333334)],[1],[0],[0],[1.2858371001202613],['target'],3,001,2025-09-30_15h49.08.701,Visual Search,,2025.1.1,59.91374820880244,2025-09-30 15h49.20.577847 +0530,
54,0,54,[np.float64(-0.2074074074074074)],[np.float64(-0.41944444444444445)],[1],[0],[0],[1.7495951999444515],['target'],54,0,54,0,71.40406419988722,,10,71.39844039990567,71.40406419988722,71.40406419988722,0.016621199902147055,73.14814619999379,[np.float64(-0.2074074074074074)],[np.float64(-0.41944444444444445)],[1],[0],[0],[1.7495951999444515],['target'],3,001,2025-09-30_15h49.08.701,Visual Search,,2025.1.1,59.91374820880244,2025-09-30 15h49.20.577847 +0530,
55,0,55,[np.float64(0.2074074074074074)],[np.float64(0.09074074074074075)],[1],[0],[0],[1.2095326997805387],['target'],55,0,55,0,73.16512919985689,,5,73.1605261999648,73.16512919985689,73.16512919985689,0.012155599892139435,74.37016339995898,[np.float64(0.2074074074074074)],[np.float64(0.09074074074074075)],[1],[0],[0],[1.2095326997805387],['target'],3,001,2025-09-30_15h49.08.701,Visual Search,,2025.1.1,59.91374820880244,2025-09-30 15h49.20.577847 +0530,
56,0,56,[np.float64(-0.225)],[np.float64(-0.24074074074074073)],[1],[0],[0],[1.1860776001121849],['target'],56,0,56,0,74.38341209990904,,5,74.37911229999736,74.38341209990904,74.38341209990904,0.008787300204858184,75.56530989985913,[np.float64(-0.225)],[np.float64(-0.24074074074074073)],[1],[0],[0],[1.1860776001121849],['target'],3,001,2025-09-30_15h49.08.701,Visual Search,,2025.1.1,59.91374820880244,2025-09-30 15h49.20.577847 +0530,
57,0,57,[np.float64(-0.125)],[np.float64(0.27314814814814814)],[1],[0],[0],[1.4360066999215633],['target'],57,0,57,0,75.58957109996118,,10,75.58387440000661,75.58957109996118,75.58957109996118,0.018317400012165308,77.01997939986177,[np.float64(-0.125)],[np.float64(0.27314814814814814)],[1],[0],[0],[1.4360066999215633],['target'],3,001,2025-09-30_15h49.08.701,Visual Search,,2025.1.1,59.91374820880244,2025-09-30 15h49.20.577847 +0530,
58,0,58,[np.float64(0.4185185185185185)],[np.float64(-0.3037037037037037)],[1],[0],[0],[1.5320970001630485],['target'],58,0,58,0,77.04199139983393,,10,77.03578079980798,77.04199139983393,77.04199139983393,0.015604799846187234,78.56796929985285,[np.float64(0.4185185185185185)],[np.float64(-0.3037037037037037)],[1],[0],[0],[1.5320970001630485],['target'],3,001,2025-09-30_15h49.08.701,Visual Search,,2025.1.1,59.91374820880244,2025-09-30 15h49.20.577847 +0530,
59,0,59,[np.float64(0.2074074074074074)],[np.float64(0.26944444444444443)],[1],[0],[0],[1.1881234999746084],['target'],59,0,59,0,78.58118659979664,,5,78.57704209978692,78.58118659979664,78.58118659979664,0.008863199967890978,79.76526189991273,[np.float64(0.2074074074074074)],[np.float64(0.26944444444444443)],[1],[0],[0],[1.1881234999746084],['target'],3,001,2025-09-30_15h49.08.701,Visual Search,,2025.1.1,59.91374820880244,2025-09-30 15h49.20.577847 +0530,
60,0,60,[np.float64(0.19814814814814816)],[np.float64(0.30092592592592593)],[1],[0],[0],[1.2866257999558002],[None],60,0,60,0,79.78745379997417,,10,79.78167249984108,79.78745379997417,79.78745379997417,0.016244800062850118,81.06839259993285,[np.float64(0.19814814814814816)],[np.float64(0.30092592592592593)],[1],[0],[0],[1.2866257999558002],[None],3,001,2025-09-30_15h49.08.701,Visual Search,,2025.1.1,59.91374820880244,2025-09-30 15h49.20.577847 +0530,
61,0,61,[np.float64(0.2898148148148148)],[np.float64(-0.3851851851851852)],[1],[0],[0],[1.2497828998602927],['target'],61,0,61,0,81.0922956999857,,10,81.08655869984068,81.0922956999857,81.0922956999857,0.01797490008175373,82.33645219984464,[np.float64(0.2898148148148148)],[np.float64(-0.3851851851851852)],[1],[0],[0],[1.2497828998602927],['target'],3,001,2025-09-30_15h49.08.701,Visual Search,,2025.1.1,59.91374820880244,2025-09-30 15h49.20.577847 +0530,
62,0,62,[np.float64(-0.1787037037037037)],[np.float64(-0.4675925925925926)],[1],[0],[0],[1.600691800005734],['target'],62,0,62,0,82.35814099991694,,10,82.35228849994019,82.35814099991694,82.35814099991694,0.015614000149071217,83.95310019981116,[np.float64(-0.1787037037037037)],[np.float64(-0.4675925925925926)],[1],[0],[0],[1.600691800005734],['target'],3,001,2025-09-30_15h49.08.701,Visual Search,,2025.1.1,59.91374820880244,2025-09-30 15h49.20.577847 +0530,
63,0,63,[np.float64(0.026851851851851852)],[np.float64(0.23148148148148148)],[1],[0],[0],[1.2659348999150097],['target'],63,0,63,0,83.97531639994122,,10,83.9696148999501,83.97531639994122,83.97531639994122,0.01595079991966486,85.23564069997519,[np.float64(0.026851851851851852)],[np.float64(0.23148148148148148)],[1],[0],[0],[1.2659348999150097],['target'],3,001,2025-09-30_15h49.08.701,Visual Search,,2025.1.1,59.91374820880244,2025-09-30 15h49.20.577847 +0530,
64,0,64,[np.float64(-0.15648148148148147)],[np.float64(-0.4462962962962963)],[1],[0],[0],[1.3487688000313938],['target'],64,0,64,0,85.2564489999786,,10,85.2503856997937,85.2564489999786,85.2564489999786,0.014569899998605251,86.59929729998112,[np.float64(-0.15648148148148147)],[np.float64(-0.4462962962962963)],[1],[0],[0],[1.3487688000313938],['target'],3,001,2025-09-30_15h49.08.701,Visual Search,,2025.1.1,59.91374820880244,2025-09-30 15h49.20.577847 +0530,
65,0,65,[np.float64(0.3592592592592593)],[np.float64(-0.4212962962962963)],[1],[0],[0],[1.4103189001325518],['target'],65,0,65,0,86.6148834999185,,5,86.61054069991224,86.6148834999185,86.6148834999185,0.010937099810689688,88.02096749981865,[np.float64(0.3592592592592593)],[np.float64(-0.4212962962962963)],[1],[0],[0],[1.4103189001325518],['target'],3,001,2025-09-30_15h49.08.701,Visual Search,,2025.1.1,59.91374820880244,2025-09-30 15h49.20.577847 +0530,
66,0,66,[np.float64(-0.11851851851851852)],[np.float64(-0.45925925925925926)],[1],[0],[0],[1.7687188000418246],['target'],66,0,66,0,88.03670209995471,,5,88.0325901999604,88.03670209995471,88.03670209995471,0.011410499922931194,89.80140609992668,[np.float64(-0.11851851851851852)],[np.float64(-0.45925925925925926)],[1],[0],[0],[1.7687188000418246],['target'],3,001,2025-09-30_15h49.08.701,Visual Search,,2025.1.1,59.91374820880244,2025-09-30 15h49.20.577847 +0530,
67,0,67,[np.float64(0.4388888888888889)],[np.float64(-0.19907407407407407)],[1],[0],[0],[1.4069415000267327],['target'],67,0,67,0,89.81476889993064,,5,89.81062769982964,89.81476889993064,89.81476889993064,0.00904519995674491,91.21765919984318,[np.float64(0.4388888888888889)],[np.float64(-0.19907407407407407)],[1],[0],[0],[1.4069415000267327],['target'],3,001,2025-09-30_15h49.08.701,Visual Search,,2025.1.1,59.91374820880244,2025-09-30 15h49.20.577847 +0530,
68,0,68,[np.float64(0.13333333333333333)],[np.float64(0.20462962962962963)],[1],[0],[0],[1.1364134999457747],[None],68,0,68,0,91.23798199999146,,10,91.23178469995037,91.23798199999146,91.23798199999146,0.014157800003886223,92.36829309980385,[np.float64(0.13333333333333333)],[np.float64(0.20462962962962963)],[1],[0],[0],[1.1364134999457747],[None],3,001,2025-09-30_15h49.08.701,Visual Search,,2025.1.1,59.91374820880244,2025-09-30 15h49.20.577847 +0530,
69,0,69,[np.float64(0.4305555555555556)],[np.float64(-0.35833333333333334)],[1],[0],[0],[1.5704445999581367],[None],69,0,69,0,92.38874519988894,,10,92.38306949986145,92.38874519988894,92.38874519988894,0.014582099858671427,93.95360479992814,[np.float64(0.4305555555555556)],[np.float64(-0.35833333333333334)],[1],[0],[0],[1.5704445999581367],[None],3,001,2025-09-30_15h49.08.701,Visual Search,,2025.1.1,59.91374820880244,2025-09-30 15h49.20.577847 +0530,
70,0,70,[np.float64(-0.18333333333333332)],[np.float64(-0.15925925925925927)],[1],[0],[0],[1.440029799938202],[None],70,0,70,0,93.96644150000066,,5,93.96212279982865,93.96644150000066,93.96644150000066,0.00832489994354546,95.40228389995173,[np.float64(-0.18333333333333332)],[np.float64(-0.15925925925925927)],[1],[0],[0],[1.440029799938202],[None],3,001,2025-09-30_15h49.08.701,Visual Search,,2025.1.1,59.91374820880244,2025-09-30 15h49.20.577847 +0530,
71,0,71,[np.float64(-0.01574074074074074)],[np.float64(0.4305555555555556)],[1],[0],[0],[1.432833099970594],[None],71,0,71,0,95.42384239984676,,10,95.41748349997215,95.42384239984676,95.42384239984676,0.015010900096967816,96.85046879993752,[np.float64(-0.01574074074074074)],[np.float64(0.4305555555555556)],[1],[0],[0],[1.432833099970594],[None],3,001,2025-09-30_15h49.08.701,Visual Search,,2025.1.1,59.91374820880244,2025-09-30 15h49.20.577847 +0530,
72,0,72,[np.float64(-0.5101851851851852)],[np.float64(-0.14907407407407408)],[1],[0],[0],[1.253224499989301],[None],72,0,72,0,96.87100970000029,,10,96.86515469988808,96.87100970000029,96.87100970000029,0.014512700028717518,98.11847059987485,[np.float64(-0.5101851851851852)],[np.float64(-0.14907407407407408)],[1],[0],[0],[1.253224499989301],[None],3,001,2025-09-30_15h49.08.701,Visual Search,,2025.1.1,59.91374820880244,2025-09-30 15h49.20.577847 +0530,
73,0,73,[np.float64(0.062037037037037036)],[np.float64(0.10092592592592593)],[1],[0],[0],[1.251683000009507],['target'],73,0,73,0,98.1390609999653,,10,98.1330579998903,98.1390609999653,98.1390609999653,0.014403400011360645,99.38483170000836,[np.float64(0.062037037037037036)],[np.float64(0.10092592592592593)],[1],[0],[0],[1.251683000009507],['target'],3,001,2025-09-30_15h49.08.701,Visual Search,,2025.1.1,59.91374820880244,2025-09-30 15h49.20.577847 +0530,
74,0,74,[np.float64(0.3333333333333333)],[np.float64(0.4537037037037037)],[1],[0],[0],[1.9419615000952035],['target'],74,0,74,0,99.39827729994431,,5,99.39361989987083,99.39827729994431,99.39827729994431,0.008614500053226948,101.33567669987679,[np.float64(0.3333333333333333)],[np.float64(0.4537037037037037)],[1],[0],[0],[1.9419615000952035],['target'],3,001,2025-09-30_15h49.08.701,Visual Search,,2025.1.1,59.91374820880244,2025-09-30 15h49.20.577847 +0530,
75,0,75,[np.float64(-0.018518518518518517)],[np.float64(0.09444444444444444)],[1],[0],[0],[1.1323560001328588],['target'],75,0,75,0,101.35705319978297,,10,101.35077189980075,101.35705319978297,101.35705319978297,0.014951300108805299,102.48318889993243,[np.float64(-0.018518518518518517)],[np.float64(0.09444444444444444)],[1],[0],[0],[1.1323560001328588],['target'],3,001,2025-09-30_15h49.08.701,Visual Search,,2025.1.1,59.91374820880244,2025-09-30 15h49.20.577847 +0530,
76,0,76,[np.float64(-0.3814814814814815)],[np.float64(0.4583333333333333)],[1],[0],[0],[1.2007766000460833],['target'],76,0,76,0,102.50469399988651,,10,102.49804749991745,102.50469399988651,102.50469399988651,0.014726900029927492,103.6988714998588,[np.float64(-0.3814814814814815)],[np.float64(0.4583333333333333)],[1],[0],[0],[1.2007766000460833],['target'],3,001,2025-09-30_15h49.08.701,Visual Search,,2025.1.1,59.91374820880244,2025-09-30 15h49.20.577847 +0530,
77,0,77,[np.float64(0.48055555555555557)],[np.float64(0.1685185185185185)],[1],[0],[0],[1.2206249001901597],['target'],77,0,77,0,103.72012219997123,,10,103.71305989986286,103.72012219997123,103.72012219997123,0.014095599995926023,104.9337557000108,[np.float64(0.48055555555555557)],[np.float64(0.1685185185185185)],[1],[0],[0],[1.2206249001901597],['target'],3,001,2025-09-30_15h49.08.701,Visual Search,,2025.1.1,59.91374820880244,2025-09-30 15h49.20.577847 +0530,
78,0,78,[np.float64(-0.36203703703703705)],[np.float64(0.35833333333333334)],[1],[0],[0],[1.2245457000099123],['target'],78,0,78,0,104.9467434999533,,5,104.94217449985445,104.9467434999533,104.9467434999533,0.008283000206574798,106.1667702998966,[np.float64(-0.36203703703703705)],[np.float64(0.35833333333333334)],[1],[0],[0],[1.2245457000099123],['target'],3,001,2025-09-30_15h49.08.701,Visual Search,,2025.1.1,59.91374820880244,2025-09-30 15h49.20.577847 +0530,
79,0,79,[np.float64(0.17314814814814813)],[np.float64(0.23425925925925925)],[1],[0],[0],[1.0854998000431806],[None],79,0,79,0,106.18815979990177,,10,106.1820229999721,106.18815979990177,106.18815979990177,0.01518190000206232,107.26762599986978,[np.float64(0.17314814814814813)],[np.float64(0.23425925925925925)],[1],[0],[0],[1.0854998000431806],[None],3,001,2025-09-30_15h49.08.701,Visual Search,,2025.1.1,59.91374820880244,2025-09-30 15h49.20.577847 +0530,
80,0,80,[np.float64(0.3907407407407407)],[np.float64(-0.4185185185185185)],[1],[0],[0],[1.692797299940139],[None],80,0,80,0,107.28175389999524,,5,107.27714069979265,107.28175389999524,107.28175389999524,0.009303199825808406,108.97004179982468,[np.float64(0.3907407407407407)],[np.float64(-0.4185185185185185)],[1],[0],[0],[1.692797299940139],[None],3,001,2025-09-30_15h49.08.701,Visual Search,,2025.1.1,59.91374820880244,2025-09-30 15h49.20.577847 +0530,
81,0,81,[np.float64(-0.03888888888888889)],[np.float64(-0.1425925925925926)],[1],[0],[0],[1.0692332999315113],['target'],81,0,81,0,108.98412939999253,,5,108.97947349981405,108.98412939999253,108.98412939999253,0.009093099972233176,110.04887059982866,[np.float64(-0.03888888888888889)],[np.float64(-0.1425925925925926)],[1],[0],[0],[1.0692332999315113],['target'],3,001,2025-09-30_15h49.08.701,Visual Search,,2025.1.1,59.91374820880244,2025-09-30 15h49.20.577847 +0530,
82,0,82,[np.float64(0.0962962962962963)],[np.float64(0.09166666666666666)],[1],[0],[0],[0.9758162999060005],['target'],82,0,82,0,110.06400399981067,,5,110.05977369984612,110.06400399981067,110.06400399981067,0.010645200032740831,111.03571359999478,[np.float64(0.0962962962962963)],[np.float64(0.09166666666666666)],[1],[0],[0],[0.9758162999060005],['target'],3,001,2025-09-30_15h49.08.701,Visual Search,,2025.1.1,59.91374820880244,2025-09-30 15h49.20.577847 +0530,
83,0,83,[np.float64(0.22870370370370371)],[np.float64(-0.1814814814814815)],[1],[0],[0],[1.3699547001160681],['target'],83,0,83,0,111.04982939991169,,5,111.04500549985096,111.04982939991169,111.04982939991169,0.009110799990594387,112.4150753999129,[np.float64(0.22870370370370371)],[np.float64(-0.1814814814814815)],[1],[0],[0],[1.3699547001160681],['target'],3,001,2025-09-30_15h49.08.701,Visual Search,,2025.1.1,59.91374820880244,2025-09-30 15h49.20.577847 +0530,
84,0,84,[np.float64(0.24259259259259258)],[np.float64(0.5)],[1],[0],[0],[1.1090289000421762],['target'],84,0,84,0,112.43117629992776,,5,112.42691929987632,112.43117629992776,112.43117629992776,0.011658400064334273,113.53604289982468,[np.float64(0.24259259259259258)],[np.float64(0.5)],[1],[0],[0],[1.1090289000421762],['target'],3,001,2025-09-30_15h49.08.701,Visual Search,,2025.1.1,59.91374820880244,2025-09-30 15h49.20.577847 +0530,
85,0,85,[np.float64(0.13148148148148148)],[np.float64(-0.1361111111111111)],[1],[0],[0],[1.2486854000017047],['target'],85,0,85,0,113.55904369987547,,10,113.55216359999031,113.55904369987547,113.55904369987547,0.015950600150972605,114.80094939982519,[np.float64(0.13148148148148148)],[np.float64(-0.1361111111111111)],[1],[0],[0],[1.2486854000017047],['target'],3,001,2025-09-30_15h49.08.701,Visual Search,,2025.1.1,59.91374820880244,2025-09-30 15h49.20.577847 +0530,
86,0,86,[np.float64(-0.07037037037037037)],[np.float64(-0.012037037037037037)],[1],[0],[0],[1.1610610000789165],['target'],86,0,86,0,114.81424440001138,,5,114.809814899927,114.81424440001138,114.81424440001138,0.008677600184455514,115.97099539986812,[np.float64(-0.07037037037037037)],[np.float64(-0.012037037037037037)],[1],[0],[0],[1.1610610000789165],['target'],3,001,2025-09-30_15h49.08.701,Visual Search,,2025.1.1,59.91374820880244,2025-09-30 15h49.20.577847 +0530,
87,0,87,[np.float64(0.2212962962962963)],[np.float64(-0.3611111111111111)],[1],[0],[0],[1.6811685001011938],['target'],87,0,87,0,115.99337409995496,,10,115.98667209991254,115.99337409995496,115.99337409995496,0.01548000006005168,117.66793489991687,[np.float64(0.2212962962962963)],[np.float64(-0.3611111111111111)],[1],[0],[0],[1.6811685001011938],['target'],3,001,2025-09-30_15h49.08.701,Visual Search,,2025.1.1,59.91374820880244,2025-09-30 15h49.20.577847 +0530,
88,0,88,[np.float64(0.32037037037037036)],[np.float64(-0.04814814814814815)],[1],[0],[0],[1.1803729000966996],[None],88,0,88,0,117.69063459988683,,10,117.68438559980132,117.69063459988683,117.69063459988683,0.01623700000345707,118.86484880000353,[np.float64(0.32037037037037036)],[np.float64(-0.04814814814814815)],[1],[0],[0],[1.1803729000966996],[None],3,001,2025-09-30_15h49.08.701,Visual Search,,2025.1.1,59.91374820880244,2025-09-30 15h49.20.577847 +0530,
89,0,89,[np.float64(0.4583333333333333)],[np.float64(0.010185185185185186)],[1],[0],[0],[1.2880546001251787],[None],89,0,89,0,118.88070149999112,,5,118.87630689982325,118.88070149999112,118.88070149999112,0.011275300057604909,120.16443719994277,[np.float64(0.4583333333333333)],[np.float64(0.010185185185185186)],[1],[0],[0],[1.2880546001251787],[None],3,001,2025-09-30_15h49.08.701,Visual Search,,2025.1.1,59.91374820880244,2025-09-30 15h49.20.577847 +0530,
90,0,90,[np.float64(-0.275)],[np.float64(-0.2574074074074074)],[1],[0],[0],[1.7562341999728233],['target'],90,0,90,0,120.18472589994781,,10,120.17796649993397,120.18472589994781,120.18472589994781,0.013416599947959185,121.93428849987686,[np.float64(-0.275)],[np.float64(-0.2574074074074074)],[1],[0],[0],[1.7562341999728233],['target'],3,001,2025-09-30_15h49.08.701,Visual Search,,2025.1.1,59.91374820880244,2025-09-30 15h49.20.577847 +0530,
91,0,91,[np.float64(-0.1574074074074074)],[np.float64(0.2111111111111111)],[1],[0],[0],[1.2013685000129044],['target'],91,0,91,0,121.95769690000452,,10,121.9509826998692,121.95769690000452,121.95769690000452,0.01651529991067946,123.1524523999542,[np.float64(-0.1574074074074074)],[np.float64(0.2111111111111111)],[1],[0],[0],[1.2013685000129044],['target'],3,001,2025-09-30_15h49.08.701,Visual Search,,2025.1.1,59.91374820880244,2025-09-30 15h49.20.577847 +0530,
92,0,92,[np.float64(-0.41203703703703703)],[np.float64(-0.10092592592592593)],[1],[0],[0],[1.3185129999183118],['target'],92,0,92,0,123.16804939997382,,5,123.1630140999332,123.16804939997382,123.16804939997382,0.010346400085836649,124.48157679988071,[np.float64(-0.41203703703703703)],[np.float64(-0.10092592592592593)],[1],[0],[0],[1.3185129999183118],['target'],3,001,2025-09-30_15h49.08.701,Visual Search,,2025.1.1,59.91374820880244,2025-09-30 15h49.20.577847 +0530,
93,0,93,[np.float64(0.2861111111111111)],[np.float64(0.287962962962963)],[1],[0],[0],[1.2790614999830723],[None],93,0,93,0,124.4962654998526,,5,124.48932459997013,124.4962654998526,124.4962654998526,0.00767920003272593,125.7684732999187,[np.float64(0.2861111111111111)],[np.float64(0.287962962962963)],[1],[0],[0],[1.2790614999830723],[None],3,001,2025-09-30_15h49.08.701,Visual Search,,2025.1.1,59.91374820880244,2025-09-30 15h49.20.577847 +0530,
94,0,94,[np.float64(-0.023148148148148147)],[np.float64(-0.31203703703703706)],[1],[0],[0],[1.3481796998530626],[None],94,0,94,0,125.79000109992921,,10,125.78336999984458,125.79000109992921,125.79000109992921,0.014727200148627162,127.13160739978775,[np.float64(-0.023148148148148147)],[np.float64(-0.31203703703703706)],[1],[0],[0],[1.3481796998530626],[None],3,001,2025-09-30_15h49.08.701,Visual Search,,2025.1.1,59.91374820880244,2025-09-30 15h49.20.577847 +0530,
95,0,95,[np.float64(0.375)],[np.float64(0.07685185185185185)],[1],[0],[0],[1.0609130000229925],['target'],95,0,95,0,127.14599979994819,,5,127.13956699986011,127.14599979994819,127.14599979994819,0.007872699992731214,128.20056779985316,[np.float64(0.375)],[np.float64(0.07685185185185185)],[1],[0],[0],[1.0609130000229925],['target'],3,001,2025-09-30_15h49.08.701,Visual Search,,2025.1.1,59.91374820880244,2025-09-30 15h49.20.577847 +0530,
96,0,96,[np.float64(0.2101851851851852)],[np.float64(0.16018518518518518)],[1],[0],[0],[1.0208628000691533],['target'],96,0,96,0,128.2138721998781,,5,128.2094342999626,128.2138721998781,128.2138721998781,0.008736700052395463,129.23037359979935,[np.float64(0.2101851851851852)],[np.float64(0.16018518518518518)],[1],[0],[0],[1.0208628000691533],['target'],3,001,2025-09-30_15h49.08.701,Visual Search,,2025.1.1,59.91374820880244,2025-09-30 15h49.20.577847 +0530,
97,0,97,[np.float64(0.18425925925925926)],[np.float64(-0.4046296296296296)],[1],[0],[0],[1.17164420010522],[None],97,0,97,0,129.2490175999701,,5,129.2436807998456,129.2490175999701,129.2490175999701,0.013208100106567144,130.4153589999769,[np.float64(0.18425925925925926)],[np.float64(-0.4046296296296296)],[1],[0],[0],[1.17164420010522],[None],3,001,2025-09-30_15h49.08.701,Visual Search,,2025.1.1,59.91374820880244,2025-09-30 15h49.20.577847 +0530,
98,0,98,[np.float64(0.17407407407407408)],[np.float64(-0.35833333333333334)],[1],[0],[0],[1.0635319999419153],[None],98,0,98,0,130.42956610000692,,5,130.421812399989,130.42956610000692,130.42956610000692,0.0063946000300347805,131.48546070000157,[np.float64(0.17407407407407408)],[np.float64(-0.35833333333333334)],[1],[0],[0],[1.0635319999419153],[None],3,001,2025-09-30_15h49.08.701,Visual Search,,2025.1.1,59.91374820880244,2025-09-30 15h49.20.577847 +0530,
99,0,99,[np.float64(0.007407407407407408)],[np.float64(-0.40185185185185185)],[1],[0],[0],[1.138261399930343],['target'],99,0,99,0,131.49970199982636,,5,131.49525979999453,131.49970199982636,131.49970199982636,0.009628700092434883,132.63360159983858,[np.float64(0.007407407407407408)],[np.float64(-0.40185185185185185)],[1],[0],[0],[1.138261399930343],['target'],3,001,2025-09-30_15h49.08.701,Visual Search,,2025.1.1,59.91374820880244,2025-09-30 15h49.20.577847 +0530,
100,0,100,[np.float64(-0.10555555555555556)],[np.float64(-0.05185185185185185)],[1],[0],[0],[1.0716387999709696],['target'],100,0,100,0,132.6496893998701,,5,132.64516889979132,132.6496893998701,132.6496893998701,0.011435699881985784,133.71688569989055,[np.float64(-0.10555555555555556)],[np.float64(-0.05185185185185185)],[1],[0],[0],[1.0716387999709696],['target'],3,001,2025-09-30_15h49.08.701,Visual Search,,2025.1.1,59.91374820880244,2025-09-30 15h49.20.577847 +0530,
101,0,101,[np.float64(-0.16203703703703703)],[np.float64(-0.35555555555555557)],[1],[0],[0],[1.488860100042075],[None],101,0,101,0,133.73018600000069,,5,133.72584199998528,133.73018600000069,133.73018600000069,0.008812400046736002,135.21474009985104,[np.float64(-0.16203703703703703)],[np.float64(-0.35555555555555557)],[1],[0],[0],[1.488860100042075],[None],3,001,2025-09-30_15h49.08.701,Visual Search,,2025.1.1,59.91374820880244,2025-09-30 15h49.20.577847 +0530,
102,0,102,[np.float64(0.43796296296296294)],[np.float64(-0.3861111111111111)],[1],[0],[0],[1.1738584998529404],[None],102,0,102,0,135.23105669999495,,5,135.2258911000099,135.23105669999495,135.23105669999495,0.011088700033724308,136.39983549993485,[np.float64(0.43796296296296294)],[np.float64(-0.3861111111111111)],[1],[0],[0],[1.1738584998529404],[None],3,001,2025-09-30_15h49.08.701,Visual Search,,2025.1.1,59.91374820880244,2025-09-30 15h49.20.577847 +0530,
103,0,103,[np.float64(-0.13518518518518519)],[np.float64(0.5)],[1],[0],[0],[1.5661230999976397],['target'],103,0,103,0,136.42298119980842,,10,136.41625009989366,136.42298119980842,136.42298119980842,0.016268800012767315,137.98244609986432,[np.float64(-0.13518518518518519)],[np.float64(0.5)],[1],[0],[0],[1.5661230999976397],['target'],3,001,2025-09-30_15h49.08.701,Visual Search,,2025.1.1,59.91374820880244,2025-09-30 15h49.20.577847 +0530,
104,0,104,[np.float64(-0.12407407407407407)],[np.float64(-0.24074074074074073)],[1],[0],[0],[1.3079123999923468],['target'],104,0,104,0,137.99613469978794,,5,137.99055209988728,137.99613469978794,137.99613469978794,0.007961000083014369,139.298584099859,[np.float64(-0.12407407407407407)],[np.float64(-0.24074074074074073)],[1],[0],[0],[1.3079123999923468],['target'],3,001,2025-09-30_15h49.08.701,Visual Search,,2025.1.1,59.91374820880244,2025-09-30 15h49.20.577847 +0530,
105,0,105,[np.float64(-0.2861111111111111)],[np.float64(0.33055555555555555)],[1],[0],[0],[1.1023609000258148],['target'],105,0,105,0,139.32362029980868,,10,139.3170356999617,139.32362029980868,139.32362029980868,0.01825179997831583,140.41952949995175,[np.float64(-0.2861111111111111)],[np.float64(0.33055555555555555)],[1],[0],[0],[1.1023609000258148],['target'],3,001,2025-09-30_15h49.08.701,Visual Search,,2025.1.1,59.91374820880244,2025-09-30 15h49.20.577847 +0530,
106,0,106,[np.float64(-0.2064814814814815)],[np.float64(0.12962962962962962)],[1],[0],[0],[1.2469309999141842],['target'],106,0,106,0,140.4432953998912,,10,140.43607859988697,140.4432953998912,140.4432953998912,0.01628399989567697,141.6830992999021,[np.float64(-0.2064814814814815)],[np.float64(0.12962962962962962)],[1],[0],[0],[1.2469309999141842],['target'],3,001,2025-09-30_15h49.08.701,Visual Search,,2025.1.1,59.91374820880244,2025-09-30 15h49.20.577847 +0530,
107,0,107,[np.float64(0.17592592592592593)],[np.float64(0.08796296296296297)],[1],[0],[0],[1.1329278000630438],['target'],107,0,107,0,141.70797329978086,,10,141.69975179992616,141.70797329978086,141.70797329978086,0.01647410006262362,142.83276199991815,[np.float64(0.17592592592592593)],[np.float64(0.08796296296296297)],[1],[0],[0],[1.1329278000630438],['target'],3,001,2025-09-30_15h49.08.701,Visual Search,,2025.1.1,59.91374820880244,2025-09-30 15h49.20.577847 +0530,
108,0,108,[np.float64(-0.4787037037037037)],[np.float64(-0.3925925925925926)],[1],[0],[0],[1.6778317999560386],['target'],108,0,108,0,142.8459638999775,,5,142.84086649981327,142.8459638999775,142.8459638999775,0.007938700029626489,144.5187971999403,[np.float64(-0.4787037037037037)],[np.float64(-0.3925925925925926)],[1],[0],[0],[1.6778317999560386],['target'],3,001,2025-09-30_15h49.08.701,Visual Search,,2025.1.1,59.91374820880244,2025-09-30 15h49.20.577847 +0530,
109,0,109,[np.float64(-0.1685185185185185)],[np.float64(0.25833333333333336)],[1],[0],[0],[1.5209196999203414],['target'],109,0,109,0,144.5319877997972,,5,144.52724019996822,144.5319877997972,144.5319877997972,0.008281399961560965,146.04834879981354,[np.float64(-0.1685185185185185)],[np.float64(0.25833333333333336)],[1],[0],[0],[1.5209196999203414],['target'],3,001,2025-09-30_15h49.08.701,Visual Search,,2025.1.1,59.91374820880244,2025-09-30 15h49.20.577847 +0530,
110,0,110,[np.float64(0.3972222222222222)],[np.float64(-0.09351851851851851)],[1],[0],[0],[1.4666713001206517],['target'],110,0,110,0,146.07446779985912,,10,146.06811319990084,146.07446779985912,146.07446779985912,0.0194128998555243,147.53488249983639,[np.float64(0.3972222222222222)],[np.float64(-0.09351851851851851)],[1],[0],[0],[1.4666713001206517],['target'],3,001,2025-09-30_15h49.08.701,Visual Search,,2025.1.1,59.91374820880244,2025-09-30 15h49.20.577847 +0530,
111,0,111,[np.float64(0.225)],[np.float64(0.1962962962962963)],[1],[0],[0],[1.066140400012955],['target'],111,0,111,0,147.55898529989645,,10,147.5526473999489,147.55898529989645,147.55898529989645,0.017562299966812134,148.61889449995942,[np.float64(0.225)],[np.float64(0.1962962962962963)],[1],[0],[0],[1.066140400012955],['target'],3,001,2025-09-30_15h49.08.701,Visual Search,,2025.1.1,59.91374820880244,2025-09-30 15h49.20.577847 +0530,
112,0,112,[np.float64(-0.45555555555555555)],[np.float64(0.46574074074074073)],[1],[0],[0],[1.6159495001193136],['target'],112,0,112,0,148.64223899994977,,10,148.63547599990852,148.64223899994977,148.64223899994977,0.016376999905332923,150.25152059993707,[np.float64(-0.45555555555555555)],[np.float64(0.46574074074074073)],[1],[0],[0],[1.6159495001193136],['target'],3,001,2025-09-30_15h49.08.701,Visual Search,,2025.1.1,59.91374820880244,2025-09-30 15h49.20.577847 +0530,
113,0,113,[np.float64(-0.4546296296296296)],[np.float64(0.049074074074074076)],[1],[0],[0],[1.1175977000966668],[None],113,0,113,0,150.27368189999834,,10,150.26665889983997,150.27368189999834,150.27368189999834,0.014938200125470757,151.38435619999655,[np.float64(-0.4546296296296296)],[np.float64(0.049074074074074076)],[1],[0],[0],[1.1175977000966668],[None],3,001,2025-09-30_15h49.08.701,Visual Search,,2025.1.1,59.91374820880244,2025-09-30 15h49.20.577847 +0530,
114,0,114,[np.float64(0.06296296296296296)],[np.float64(0.15648148148148147)],[1],[0],[0],[1.2390502002090216],['target'],114,0,114,0,151.39898249995895,,5,151.39470349997282,151.39898249995895,151.39898249995895,0.010055799968540668,152.6338731998112,[np.float64(0.06296296296296296)],[np.float64(0.15648148148148147)],[1],[0],[0],[1.2390502002090216],['target'],3,001,2025-09-30_15h49.08.701,Visual Search,,2025.1.1,59.91374820880244,2025-09-30 15h49.20.577847 +0530,
115,0,115,[np.float64(0.4425925925925926)],[np.float64(-0.4777777777777778)],[1],[0],[0],[1.4657978999894112],['target'],115,0,115,0,152.65776029997505,,10,152.65136529994197,152.65776029997505,152.65776029997505,0.017308100126683712,154.11722999997437,[np.float64(0.4425925925925926)],[np.float64(-0.4777777777777778)],[1],[0],[0],[1.4657978999894112],['target'],3,001,2025-09-30_15h49.08.701,Visual Search,,2025.1.1,59.91374820880244,2025-09-30 15h49.20.577847 +0530,
116,0,116,[np.float64(0.42592592592592593)],[np.float64(0.04259259259259259)],[1],[0],[0],[1.2263094000518322],['target'],116,0,116,0,154.12968659983017,,5,154.12469639978372,154.12968659983017,154.12968659983017,0.007334300084039569,155.3511080997996,[np.float64(0.42592592592592593)],[np.float64(0.04259259259259259)],[1],[0],[0],[1.2263094000518322],['target'],3,001,2025-09-30_15h49.08.701,Visual Search,,2025.1.1,59.91374820880244,2025-09-30 15h49.20.577847 +0530,
117,0,117,[np.float64(0.3175925925925926)],[np.float64(-0.4722222222222222)],[1],[0],[0],[1.3346210001036525],['target'],117,0,117,0,155.37447719997726,,10,155.36797129991464,155.37447719997726,155.37447719997726,0.01669650012627244,156.70270259981044,[np.float64(0.3175925925925926)],[np.float64(-0.4722222222222222)],[1],[0],[0],[1.3346210001036525],['target'],3,001,2025-09-30_15h49.08.701,Visual Search,,2025.1.1,59.91374820880244,2025-09-30 15h49.20.577847 +0530,
118,0,118,[np.float64(0.17962962962962964)],[np.float64(-0.32222222222222224)],[1],[0],[0],[1.2656020999420434],['target'],118,0,118,0,156.72517509991303,,10,156.7189775998704,156.72517509991303,156.72517509991303,0.016052799997851253,157.98467659996822,[np.float64(0.17962962962962964)],[np.float64(-0.32222222222222224)],[1],[0],[0],[1.2656020999420434],['target'],3,001,2025-09-30_15h49.08.701,Visual Search,,2025.1.1,59.91374820880244,2025-09-30 15h49.20.577847 +0530,
119,0,119,[np.float64(0.13425925925925927)],[np.float64(-0.27037037037037037)],[1],[0],[0],[1.0590202000457793],['target'],119,0,119,0,157.99856289988384,,5,157.99388439999893,157.99856289988384,157.99856289988384,0.008909700205549598,159.0530051998794,[np.float64(0.13425925925925927)],[np.float64(-0.27037037037037037)],[1],[0],[0],[1.0590202000457793],['target'],3,001,2025-09-30_15h49.08.701,Visual Search,,2025.1.1,59.91374820880244,2025-09-30 15h49.20.577847 +0530,
120,0,120,[np.float64(-0.2074074074074074)],[np.float64(-0.462037037037037)],[1],[0],[0],[1.5000566001981497],['target'],120,0,120,0,159.07437659986317,,10,159.0680807000026,159.07437659986317,159.07437659986317,0.014907100005075336,160.5682283998467,[np.float64(-0.2074074074074074)],[np.float64(-0.462037037037037)],[1],[0],[0],[1.5000566001981497],['target'],3,001,2025-09-30_15h49.08.701,Visual Search,,2025.1.1,59.91374820880244,2025-09-30 15h49.20.577847 +0530,
121,0,121,[np.float64(-0.20185185185185187)],[np.float64(-0.3972222222222222)],[1],[0],[0],[1.0342123000882566],['target'],121,0,121,0,160.5911504998803,,10,160.5841591998469,160.5911504998803,160.5911504998803,0.01574090006761253,161.61847059987485,[np.float64(-0.20185185185185187)],[np.float64(-0.3972222222222222)],[1],[0],[0],[1.0342123000882566],['target'],3,001,2025-09-30_15h49.08.701,Visual Search,,2025.1.1,59.91374820880244,2025-09-30 15h49.20.577847 +0530,
122,0,122,[np.float64(-0.16296296296296298)],[np.float64(0.23703703703703705)],[1],[0],[0],[1.3847838998772204],['target'],122,0,122,0,161.64258559979498,,10,161.6356845998671,161.64258559979498,161.64258559979498,0.01701790001243353,163.02057639998384,[np.float64(-0.16296296296296298)],[np.float64(0.23703703703703705)],[1],[0],[0],[1.3847838998772204],['target'],3,001,2025-09-30_15h49.08.701,Visual Search,,2025.1.1,59.91374820880244,2025-09-30 15h49.20.577847 +0530,
123,0,123,[np.float64(-0.4064814814814815)],[np.float64(0.11481481481481481)],[1],[0],[0],[1.1508164999540895],['target'],123,0,123,0,163.03465099981986,,5,163.03001409978606,163.03465099981986,163.03465099981986,0.00919429981149733,164.18094519991428,[np.float64(-0.4064814814814815)],[np.float64(0.11481481481481481)],[1],[0],[0],[1.1508164999540895],['target'],3,001,2025-09-30_15h49.08.701,Visual Search,,2025.1.1,59.91374820880244,2025-09-30 15h49.20.577847 +0530,
124,0,124,[np.float64(-0.19166666666666668)],[np.float64(0.2351851851851852)],[1],[0],[0],[1.2482630000449717],['target'],124,0,124,0,164.20529789989814,,10,164.19928790000267,164.20529789989814,164.20529789989814,0.018144400091841817,165.4476494998671,[np.float64(-0.19166666666666668)],[np.float64(0.2351851851851852)],[1],[0],[0],[1.2482630000449717],['target'],3,001,2025-09-30_15h49.08.701,Visual Search,,2025.1.1,59.91374820880244,2025-09-30 15h49.20.577847 +0530,
125,0,125,[np.float64(0.27685185185185185)],[np.float64(0.1814814814814815)],[1],[0],[0],[1.0770254000090063],['target'],125,0,125,0,165.46265090000816,,5,165.45689829997718,165.46265090000816,165.46265090000816,0.009049399988725781,166.53401919989847,[np.float64(0.27685185185185185)],[np.float64(0.1814814814814815)],[1],[0],[0],[1.0770254000090063],['target'],3,001,2025-09-30_15h49.08.701,Visual Search,,2025.1.1,59.91374820880244,2025-09-30 15h49.20.577847 +0530,
126,0,126,[np.float64(0.387037037037037)],[np.float64(0.4824074074074074)],[1],[0],[0],[1.9090819000266492],['target'],126,0,126,0,166.54737729998305,,5,166.54320629988797,166.54737729998305,166.54737729998305,0.009022900136187673,168.45238419994712,[np.float64(0.387037037037037)],[np.float64(0.4824074074074074)],[1],[0],[0],[1.9090819000266492],['target'],3,001,2025-09-30_15h49.08.701,Visual Search,,2025.1.1,59.91374820880244,2025-09-30 15h49.20.577847 +0530,
127,0,127,[np.float64(0.21666666666666667)],[np.float64(-0.2759259259259259)],[1],[0],[0],[1.2208820001687855],['target'],127,0,127,0,168.4700999998022,,5,168.4641590998508,168.4700999998022,168.4700999998022,0.011615399969741702,169.68514979979955,[np.float64(0.21666666666666667)],[np.float64(-0.2759259259259259)],[1],[0],[0],[1.2208820001687855],['target'],3,001,2025-09-30_15h49.08.701,Visual Search,,2025.1.1,59.91374820880244,2025-09-30 15h49.20.577847 +0530,
128,0,128,[np.float64(0.125)],[np.float64(0.462037037037037)],[1],[0],[0],[1.1502024000510573],['target'],128,0,128,0,169.7073512999341,,10,169.70032949978486,169.7073512999341,169.7073512999341,0.014998399885371327,170.85062709986232,[np.float64(0.125)],[np.float64(0.462037037037037)],[1],[0],[0],[1.1502024000510573],['target'],3,001,2025-09-30_15h49.08.701,Visual Search,,2025.1.1,59.91374820880244,2025-09-30 15h49.20.577847 +0530,
129,0,129,[np.float64(0.44537037037037036)],[np.float64(0.09351851851851851)],[1],[0],[0],[1.055431199958548],['target'],129,0,129,0,170.86597469984554,,5,170.86089149978943,170.86597469984554,170.86597469984554,0.01007919991388917,171.9164046999067,[np.float64(0.44537037037037036)],[np.float64(0.09351851851851851)],[1],[0],[0],[1.055431199958548],['target'],3,001,2025-09-30_15h49.08.701,Visual Search,,2025.1.1,59.91374820880244,2025-09-30 15h49.20.577847 +0530,
130,0,130,[np.float64(-0.22870370370370371)],[np.float64(0.4861111111111111)],[1],[0],[0],[1.0994297999422997],[None],130,0,130,0,171.93751849979162,,10,171.931233599782,171.93751849979162,171.93751849979162,0.014704800210893154,173.0307784997858,[np.float64(-0.22870370370370371)],[np.float64(0.4861111111111111)],[1],[0],[0],[1.0994297999422997],[None],3,001,2025-09-30_15h49.08.701,Visual Search,,2025.1.1,59.91374820880244,2025-09-30 15h49.20.577847 +0530,
131,0,131,[np.float64(0.06759259259259259)],[np.float64(-0.2537037037037037)],[1],[0],[0],[1.4937199999112636],['target'],131,0,131,0,173.04572069994174,,5,173.0401190998964,173.04572069994174,173.04572069994174,0.0091283000074327,174.53392869979143,[np.float64(0.06759259259259259)],[np.float64(-0.2537037037037037)],[1],[0],[0],[1.4937199999112636],['target'],3,001,2025-09-30_15h49.08.701,Visual Search,,2025.1.1,59.91374820880244,2025-09-30 15h49.20.577847 +0530,
132,0,132,[np.float64(0.09814814814814815)],[np.float64(-0.01574074074074074)],[1],[0],[0],[1.1208903000224382],['target'],132,0,132,0,174.54825049987994,,5,174.543610899942,174.54825049987994,174.54825049987994,0.009539599996060133,175.66466279979795,[np.float64(0.09814814814814815)],[np.float64(-0.01574074074074074)],[1],[0],[0],[1.1208903000224382],['target'],3,001,2025-09-30_15h49.08.701,Visual Search,,2025.1.1,59.91374820880244,2025-09-30 15h49.20.577847 +0530,
133,0,133,[np.float64(-0.4425925925925926)],[np.float64(-0.36574074074074076)],[1],[0],[0],[1.386540099978447],['target'],133,0,133,0,175.68869659979828,,10,175.68270329991356,175.68869659979828,175.68869659979828,0.01779099996201694,177.06936359987594,[np.float64(-0.4425925925925926)],[np.float64(-0.36574074074074076)],[1],[0],[0],[1.386540099978447],['target'],3,001,2025-09-30_15h49.08.701,Visual Search,,2025.1.1,59.91374820880244,2025-09-30 15h49.20.577847 +0530,
134,0,134,[np.float64(-0.17407407407407408)],[np.float64(0.41574074074074074)],[1],[0],[0],[1.8479768000543118],['target'],134,0,134,0,177.09357799985446,,10,177.08708759979345,177.09357799985446,177.09357799985446,0.017504499992355704,178.93518629996106,[np.float64(-0.17407407407407408)],[np.float64(0.41574074074074074)],[1],[0],[0],[1.8479768000543118],['target'],3,001,2025-09-30_15h49.08.701,Visual Search,,2025.1.1,59.91374820880244,2025-09-30 15h49.20.577847 +0530,
135,0,135,[np.float64(-0.38333333333333336)],[np.float64(0.32314814814814813)],[1],[0],[0],[1.4486203999258578],['target'],135,0,135,0,178.95848179981112,,10,178.95185119984671,178.95848179981112,178.95848179981112,0.016444799955934286,180.40057449997403,[np.float64(-0.38333333333333336)],[np.float64(0.32314814814814813)],[1],[0],[0],[1.4486203999258578],['target'],3,001,2025-09-30_15h49.08.701,Visual Search,,2025.1.1,59.91374820880244,2025-09-30 15h49.20.577847 +0530,
136,0,136,[np.float64(0.003703703703703704)],[np.float64(0.34444444444444444)],[1],[0],[0],[1.1428802001755685],['target'],136,0,136,0,180.41421710001305,,5,180.409813700011,180.41421710001305,180.41421710001305,0.009019899880513549,181.5527842999436,[np.float64(0.003703703703703704)],[np.float64(0.34444444444444444)],[1],[0],[0],[1.1428802001755685],['target'],3,001,2025-09-30_15h49.08.701,Visual Search,,2025.1.1,59.91374820880244,2025-09-30 15h49.20.577847 +0530,
137,0,137,[np.float64(-0.12037037037037036)],[np.float64(-0.30277777777777776)],[1],[0],[0],[1.1369971001986414],['target'],137,0,137,0,181.5658320998773,,5,181.56129270000383,181.5658320998773,181.5658320998773,0.008352800039574504,182.69837769982405,[np.float64(-0.12037037037037036)],[np.float64(-0.30277777777777776)],[1],[0],[0],[1.1369971001986414],['target'],3,001,2025-09-30_15h49.08.701,Visual Search,,2025.1.1,59.91374820880244,2025-09-30 15h49.20.577847 +0530,
138,0,138,[np.float64(0.20277777777777778)],[np.float64(-0.18518518518518517)],[1],[0],[0],[1.221644900040701],['target'],138,0,138,0,182.71840339992195,,10,182.7122799998615,182.71840339992195,182.71840339992195,0.013752100057899952,183.93400209979154,[np.float64(0.20277777777777778)],[np.float64(-0.18518518518518517)],[1],[0],[0],[1.221644900040701],['target'],3,001,2025-09-30_15h49.08.701,Visual Search,,2025.1.1,59.91374820880244,2025-09-30 15h49.20.577847 +0530,
139,0,139,[np.float64(-0.1425925925925926)],[np.float64(0.4888888888888889)],[1],[0],[0],[1.1808843999169767],['target'],139,0,139,0,183.9582743998617,,10,183.95121799991466,183.9582743998617,183.9582743998617,0.01707499986514449,185.13217609981075,[np.float64(-0.1425925925925926)],[np.float64(0.4888888888888889)],[1],[0],[0],[1.1808843999169767],['target'],3,001,2025-09-30_15h49.08.701,Visual Search,,2025.1.1,59.91374820880244,2025-09-30 15h49.20.577847 +0530,
140,0,140,[np.float64(0.4675925925925926)],[np.float64(0.000925925925925926)],[1],[0],[0],[1.3604828999377787],['target'],140,0,140,0,185.14621069980785,,5,185.1414253998082,185.14621069980785,185.14621069980785,0.009103500051423907,186.50200589979067,[np.float64(0.4675925925925926)],[np.float64(0.000925925925925926)],[1],[0],[0],[1.3604828999377787],['target'],3,001,2025-09-30_15h49.08.701,Visual Search,,2025.1.1,59.91374820880244,2025-09-30 15h49.20.577847 +0530,
141,0,141,[np.float64(0.3907407407407407)],[np.float64(0.4861111111111111)],[1],[0],[0],[1.4361535999923944],['target'],141,0,141,0,186.51581609994173,,5,186.51136799994856,186.51581609994173,186.51581609994173,0.009198700077831745,187.94766349997371,[np.float64(0.3907407407407407)],[np.float64(0.4861111111111111)],[1],[0],[0],[1.4361535999923944],['target'],3,001,2025-09-30_15h49.08.701,Visual Search,,2025.1.1,59.91374820880244,2025-09-30 15h49.20.577847 +0530,
142,0,142,[np.float64(0.2657407407407407)],[np.float64(0.412962962962963)],[1],[0],[0],[1.6233623998705298],[None],142,0,142,0,187.96246199985035,,5,187.95761529984884,187.96246199985035,187.96246199985035,0.009748099837452173,189.58112999983132,[np.float64(0.2657407407407407)],[np.float64(0.412962962962963)],[1],[0],[0],[1.6233623998705298],[None],3,001,2025-09-30_15h49.08.701,Visual Search,,2025.1.1,59.91374820880244,2025-09-30 15h49.20.577847 +0530,
143,0,143,[np.float64(-0.1574074074074074)],[np.float64(0.4185185185185185)],[1],[0],[0],[1.0920016998425126],['target'],143,0,143,0,189.59691789979115,,5,189.59208879992366,189.59691789979115,189.59691789979115,0.010734699899330735,190.68418819992803,[np.float64(-0.1574074074074074)],[np.float64(0.4185185185185185)],[1],[0],[0],[1.0920016998425126],['target'],3,001,2025-09-30_15h49.08.701,Visual Search,,2025.1.1,59.91374820880244,2025-09-30 15h49.20.577847 +0530,
144,0,144,[np.float64(-0.14444444444444443)],[np.float64(-0.18425925925925926)],[1],[0],[0],[1.1729822000488639],['target'],144,0,144,0,190.69829359999858,,5,190.6935623998288,190.69829359999858,190.69829359999858,0.009209899930283427,191.86663229996338,[np.float64(-0.14444444444444443)],[np.float64(-0.18425925925925926)],[1],[0],[0],[1.1729822000488639],['target'],3,001,2025-09-30_15h49.08.701,Visual Search,,2025.1.1,59.91374820880244,2025-09-30 15h49.20.577847 +0530,
145,0,145,[np.float64(-0.012037037037037037)],[np.float64(0.3990740740740741)],[1],[0],[0],[1.3343718000687659],['target'],145,0,145,0,191.890653999988,,10,191.88355619995855,191.890653999988,191.890653999988,0.016762600047513843,193.2180226999335,[np.float64(-0.012037037037037037)],[np.float64(0.3990740740740741)],[1],[0],[0],[1.3343718000687659],['target'],3,001,2025-09-30_15h49.08.701,Visual Search,,2025.1.1,59.91374820880244,2025-09-30 15h49.20.577847 +0530,
146,0,146,[np.float64(-0.049074074074074076)],[np.float64(-0.06481481481481481)],[1],[0],[0],[1.6495436998084188],['target'],146,0,146,0,193.2418353999965,,10,193.2353774998337,193.2418353999965,193.2418353999965,0.017161399824544787,194.88503589993343,[np.float64(-0.049074074074074076)],[np.float64(-0.06481481481481481)],[1],[0],[0],[1.6495436998084188],['target'],3,001,2025-09-30_15h49.08.701,Visual Search,,2025.1.1,59.91374820880244,2025-09-30 15h49.20.577847 +0530,
147,0,147,[np.float64(0.03981481481481482)],[np.float64(-0.21851851851851853)],[1],[0],[0],[1.1741865000221878],['target'],147,0,147,0,194.8997312998399,,5,194.895029499894,194.8997312998399,194.8997312998399,0.009774099802598357,196.0693279998377,[np.float64(0.03981481481481482)],[np.float64(-0.21851851851851853)],[1],[0],[0],[1.1741865000221878],['target'],3,001,2025-09-30_15h49.08.701,Visual Search,,2025.1.1,59.91374820880244,2025-09-30 15h49.20.577847 +0530,
148,0,148,[np.float64(-0.4166666666666667)],[np.float64(0.43796296296296294)],[1],[0],[0],[1.3185756001621485],[None],148,0,148,0,196.08359449985437,,5,196.07919179997407,196.08359449985437,196.08359449985437,0.009689099853858352,197.39794809999876,[np.float64(-0.4166666666666667)],[np.float64(0.43796296296296294)],[1],[0],[0],[1.3185756001621485],[None],3,001,2025-09-30_15h49.08.701,Visual Search,,2025.1.1,59.91374820880244,2025-09-30 15h49.20.577847 +0530,
149,0,149,[np.float64(0.40185185185185185)],[np.float64(0.019444444444444445)],[1],[0],[0],[1.4863942000083625],['target'],149,0,149,0,197.41674409992993,,5,197.41144549986348,197.41674409992993,197.41674409992993,0.012971399817615747,198.89797629998066,[np.float64(0.40185185185185185)],[np.float64(0.019444444444444445)],[1],[0],[0],[1.4863942000083625],['target'],3,001,2025-09-30_15h49.08.701,Visual Search,,2025.1.1,59.91374820880244,2025-09-30 15h49.20.577847 +0530,
150,0,150,[np.float64(0.1425925925925926)],[np.float64(-0.4898148148148148)],[1],[0],[0],[1.4099010000936687],['target'],150,0,150,0,198.9126091999933,,5,198.90820709988475,198.9126091999933,198.9126091999933,0.010006000055000186,200.3182050997857,[np.float64(0.1425925925925926)],[np.float64(-0.4898148148148148)],[1],[0],[0],[1.4099010000936687],['target'],3,001,2025-09-30_15h49.08.701,Visual Search,,2025.1.1,59.91374820880244,2025-09-30 15h49.20.577847 +0530,
151,0,151,[np.float64(-0.49537037037037035)],[np.float64(-0.23148148148148148)],[1],[0],[0],[1.1916659001726657],['target'],151,0,151,0,200.33121229987592,,5,200.3268416998908,200.33121229987592,200.33121229987592,0.008468999993056059,201.51860379986465,[np.float64(-0.49537037037037035)],[np.float64(-0.23148148148148148)],[1],[0],[0],[1.1916659001726657],['target'],3,001,2025-09-30_15h49.08.701,Visual Search,,2025.1.1,59.91374820880244,2025-09-30 15h49.20.577847 +0530,
152,0,152,[np.float64(0.08055555555555556)],[np.float64(0.23703703703703705)],[1],[0],[0],[1.5177239999175072],['target'],152,0,152,0,201.5404727999121,,10,201.53412139997818,201.5404727999121,201.5404727999121,0.015357700176537037,203.05194619996473,[np.float64(0.08055555555555556)],[np.float64(0.23703703703703705)],[1],[0],[0],[1.5177239999175072],['target'],3,001,2025-09-30_15h49.08.701,Visual Search,,2025.1.1,59.91374820880244,2025-09-30 15h49.20.577847 +0530,
153,0,153,[np.float64(0.3435185185185185)],[np.float64(0.3509259259259259)],[1],[0],[0],[1.5047669999767095],['target'],153,0,153,0,203.0661342998501,,5,203.06177929998375,203.0661342998501,203.0661342998501,0.009639800060540438,204.56664749979973,[np.float64(0.3435185185185185)],[np.float64(0.3509259259259259)],[1],[0],[0],[1.5047669999767095],['target'],3,001,2025-09-30_15h49.08.701,Visual Search,,2025.1.1,59.91374820880244,2025-09-30 15h49.20.577847 +0530,
154,0,154,[np.float64(0.1)],[np.float64(0.2222222222222222)],[1],[0],[0],[0.998618199955672],['target'],154,0,154,0,204.5909355999902,,10,204.5838409999851,204.5909355999902,204.5909355999902,0.01701759989373386,205.5825269999914,[np.float64(0.1)],[np.float64(0.2222222222222222)],[1],[0],[0],[0.998618199955672],['target'],3,001,2025-09-30_15h49.08.701,Visual Search,,2025.1.1,59.91374820880244,2025-09-30 15h49.20.577847 +0530,
155,0,155,[np.float64(0.3648148148148148)],[np.float64(-0.08518518518518518)],[1],[0],[0],[1.1779111998621374],[None],155,0,155,0,205.5952324999962,,5,205.59010239993222,205.5952324999962,205.5952324999962,0.007442699978128076,206.76811839989386,[np.float64(0.3648148148148148)],[np.float64(-0.08518518518518518)],[1],[0],[0],[1.1779111998621374],[None],3,001,2025-09-30_15h49.08.701,Visual Search,,2025.1.1,59.91374820880244,2025-09-30 15h49.20.577847 +0530,
156,0,156,[np.float64(-0.38425925925925924)],[np.float64(-0.2212962962962963)],[1],[0],[0],[1.3487568001728505],['target'],156,0,156,0,206.79013319988735,,10,206.7836040998809,206.79013319988735,206.79013319988735,0.015072999987751245,208.1324424999766,[np.float64(-0.38425925925925924)],[np.float64(-0.2212962962962963)],[1],[0],[0],[1.3487568001728505],['target'],3,001,2025-09-30_15h49.08.701,Visual Search,,2025.1.1,59.91374820880244,2025-09-30 15h49.20.577847 +0530,
157,0,157,[np.float64(-0.075)],[np.float64(-0.36666666666666664)],[1],[0],[0],[1.519556200131774],[None],157,0,157,0,208.15318009979092,,10,208.14649640000425,208.15318009979092,208.15318009979092,0.013917200034484267,209.66613699984737,[np.float64(-0.075)],[np.float64(-0.36666666666666664)],[1],[0],[0],[1.519556200131774],[None],3,001,2025-09-30_15h49.08.701,Visual Search,,2025.1.1,59.91374820880244,2025-09-30 15h49.20.577847 +0530,
158,0,158,[np.float64(0.22407407407407406)],[np.float64(-0.3148148148148148)],[1],[0],[0],[1.0266958998981863],['target'],158,0,158,0,209.67892709979787,,5,209.67465949989855,209.67892709979787,209.67892709979787,0.008326300187036395,210.70147480000742,[np.float64(0.22407407407407406)],[np.float64(-0.3148148148148148)],[1],[0],[0],[1.0266958998981863],['target'],3,001,2025-09-30_15h49.08.701,Visual Search,,2025.1.1,59.91374820880244,2025-09-30 15h49.20.577847 +0530,
159,0,159,[np.float64(0.1925925925925926)],[np.float64(0.02962962962962963)],[1],[0],[0],[1.299202499911189],['target'],159,0,159,0,210.72443259996362,,10,210.71772449999116,210.72443259996362,210.72443259996362,0.01605490013025701,212.01704359985888,[np.float64(0.1925925925925926)],[np.float64(0.02962962962962963)],[1],[0],[0],[1.299202499911189],['target'],3,001,2025-09-30_15h49.08.701,Visual Search,,2025.1.1,59.91374820880244,2025-09-30 15h49.20.577847 +0530,
160,0,160,[np.float64(-0.09907407407407408)],[np.float64(0.45740740740740743)],[1],[0],[0],[1.2499541998840868],['target'],160,0,160,0,212.0393190998584,,10,212.03290509991348,212.0393190998584,212.0393190998584,0.01561869983561337,213.28294159984216,[np.float64(-0.09907407407407408)],[np.float64(0.45740740740740743)],[1],[0],[0],[1.2499541998840868],['target'],3,001,2025-09-30_15h49.08.701,Visual Search,,2025.1.1,59.91374820880244,2025-09-30 15h49.20.577847 +0530,
161,0,161,[np.float64(-0.04814814814814815)],[np.float64(0.23333333333333334)],[1],[0],[0],[0.9273047000169754],['target'],161,0,161,0,213.29513399978168,,5,213.2907327997964,213.29513399978168,213.29513399978168,0.007614499889314175,214.2181394000072,[np.float64(-0.04814814814814815)],[np.float64(0.23333333333333334)],[1],[0],[0],[0.9273047000169754],['target'],3,001,2025-09-30_15h49.08.701,Visual Search,,2025.1.1,59.91374820880244,2025-09-30 15h49.20.577847 +0530,
162,0,162,[np.float64(-0.3712962962962963)],[np.float64(-0.26666666666666666)],[1],[0],[0],[1.4734217000659555],[None],162,0,162,0,214.23248020000756,,5,214.2271908998955,214.23248020000756,214.23248020000756,0.008888900047168136,215.7007127997931,[np.float64(-0.3712962962962963)],[np.float64(-0.26666666666666666)],[1],[0],[0],[1.4734217000659555],[None],3,001,2025-09-30_15h49.08.701,Visual Search,,2025.1.1,59.91374820880244,2025-09-30 15h49.20.577847 +0530,
163,0,163,[np.float64(0.20555555555555555)],[np.float64(-0.44907407407407407)],[1],[0],[0],[1.3229160998016596],[None],163,0,163,0,215.71603909996338,,5,215.71064339997247,215.71603909996338,215.71603909996338,0.009763600071892142,217.03363239997998,[np.float64(0.20555555555555555)],[np.float64(-0.44907407407407407)],[1],[0],[0],[1.3229160998016596],[None],3,001,2025-09-30_15h49.08.701,Visual Search,,2025.1.1,59.91374820880244,2025-09-30 15h49.20.577847 +0530,
164,0,164,[np.float64(0.1685185185185185)],[np.float64(-0.09259259259259259)],[1],[0],[0],[1.0825811999384314],['target'],164,0,164,0,217.0536124999635,,10,217.04726349981502,217.0536124999635,217.0536124999635,0.013509399956092238,218.12991339992732,[np.float64(0.1685185185185185)],[np.float64(-0.09259259259259259)],[1],[0],[0],[1.0825811999384314],['target'],3,001,2025-09-30_15h49.08.701,Visual Search,,2025.1.1,59.91374820880244,2025-09-30 15h49.20.577847 +0530,
165,0,165,[np.float64(-0.23055555555555557)],[np.float64(0.028703703703703703)],[1],[0],[0],[1.0587510000914335],['target'],165,0,165,0,218.14996899990365,,10,218.1435945997946,218.14996899990365,218.14996899990365,0.013539500068873167,219.2024524998851,[np.float64(-0.23055555555555557)],[np.float64(0.028703703703703703)],[1],[0],[0],[1.0587510000914335],['target'],3,001,2025-09-30_15h49.08.701,Visual Search,,2025.1.1,59.91374820880244,2025-09-30 15h49.20.577847 +0530,
166,0,166,[np.float64(0.025)],[np.float64(-0.3712962962962963)],[1],[0],[0],[1.3619498999323696],[None],166,0,166,0,219.22837809985504,,10,219.22216749982908,219.22837809985504,219.22837809985504,0.019495599903166294,220.5842104998883,[np.float64(0.025)],[np.float64(-0.3712962962962963)],[1],[0],[0],[1.3619498999323696],[None],3,001,2025-09-30_15h49.08.701,Visual Search,,2025.1.1,59.91374820880244,2025-09-30 15h49.20.577847 +0530,
167,0,167,[np.float64(0.30185185185185187)],[np.float64(-0.4527777777777778)],[1],[0],[0],[1.4690241999924183],['target'],167,0,167,0,220.6051618999336,,10,220.59926509996876,220.6051618999336,220.6051618999336,0.014862699899822474,222.06841219984926,[np.float64(0.30185185185185187)],[np.float64(-0.4527777777777778)],[1],[0],[0],[1.4690241999924183],['target'],3,001,2025-09-30_15h49.08.701,Visual Search,,2025.1.1,59.91374820880244,2025-09-30 15h49.20.577847 +0530,
168,0,168,[np.float64(0.2722222222222222)],[np.float64(-0.19722222222222222)],[1],[0],[0],[1.0170901999808848],['target'],168,0,168,0,222.09130249987356,,10,222.0851045998279,222.09130249987356,222.09130249987356,0.016461299965158105,223.10232449998148,[np.float64(0.2722222222222222)],[np.float64(-0.19722222222222222)],[1],[0],[0],[1.0170901999808848],['target'],3,001,2025-09-30_15h49.08.701,Visual Search,,2025.1.1,59.91374820880244,2025-09-30 15h49.20.577847 +0530,
169,0,169,[np.float64(0.05648148148148148)],[np.float64(-0.3537037037037037)],[1],[0],[0],[1.1590613999869674],['target'],169,0,169,0,223.12779749999754,,10,223.1207826999016,223.12779749999754,223.12779749999754,0.018212500028312206,224.27992679993622,[np.float64(0.05648148148148148)],[np.float64(-0.3537037037037037)],[1],[0],[0],[1.1590613999869674],['target'],3,001,2025-09-30_15h49.08.701,Visual Search,,2025.1.1,59.91374820880244,2025-09-30 15h49.20.577847 +0530,
170,0,170,[np.float64(-0.000925925925925926)],[np.float64(-0.07592592592592592)],[1],[0],[0],[1.041246899869293],['target'],170,0,170,0,224.29962969990447,,10,224.29342959984206,224.29962969990447,224.29962969990447,0.013353399932384491,225.3347716999706,[np.float64(-0.000925925925925926)],[np.float64(-0.07592592592592592)],[1],[0],[0],[1.041246899869293],['target'],3,001,2025-09-30_15h49.08.701,Visual Search,,2025.1.1,59.91374820880244,2025-09-30 15h49.20.577847 +0530,
171,0,171,[np.float64(-0.03888888888888889)],[np.float64(-0.22685185185185186)],[1],[0],[0],[1.0690472000278533],[None],171,0,171,0,225.3485772998538,,5,225.34454169985838,225.3485772998538,225.3485772998538,0.0095875000115484,226.41370819997974,[np.float64(-0.03888888888888889)],[np.float64(-0.22685185185185186)],[1],[0],[0],[1.0690472000278533],[None],3,001,2025-09-30_15h49.08.701,Visual Search,,2025.1.1,59.91374820880244,2025-09-30 15h49.20.577847 +0530,
172,0,172,[np.float64(-0.2824074074074074)],[np.float64(-0.1824074074074074)],[1],[0],[0],[1.0385892000049353],['target'],172,0,172,0,226.43547769985162,,10,226.42936139996164,226.43547769985162,226.43547769985162,0.015472200000658631,227.46806659991853,[np.float64(-0.2824074074074074)],[np.float64(-0.1824074074074074)],[1],[0],[0],[1.0385892000049353],['target'],3,001,2025-09-30_15h49.08.701,Visual Search,,2025.1.1,59.91374820880244,2025-09-30 15h49.20.577847 +0530,
173,0,173,[np.float64(-0.3277777777777778)],[np.float64(0.22592592592592592)],[1],[0],[0],[1.0396866002120078],['target'],173,0,173,0,227.4823154998012,,5,227.4780583998654,227.4823154998012,227.4823154998012,0.009776199935004115,228.51784290000796,[np.float64(-0.3277777777777778)],[np.float64(0.22592592592592592)],[1],[0],[0],[1.0396866002120078],['target'],3,001,2025-09-30_15h49.08.701,Visual Search,,2025.1.1,59.91374820880244,2025-09-30 15h49.20.577847 +0530,
174,0,174,[np.float64(0.1712962962962963)],[np.float64(-0.47129629629629627)],[1],[0],[0],[1.6907834999728948],[None],174,0,174,0,228.53214949998073,,5,228.52782759978436,228.53214949998073,228.53214949998073,0.009815099881961942,230.2187200000044,[np.float64(0.1712962962962963)],[np.float64(-0.47129629629629627)],[1],[0],[0],[1.6907834999728948],[None],3,001,2025-09-30_15h49.08.701,Visual Search,,2025.1.1,59.91374820880244,2025-09-30 15h49.20.577847 +0530,
175,0,175,[np.float64(0.36574074074074076)],[np.float64(0.36574074074074076)],[1],[0],[0],[1.6151662999764085],['target'],175,0,175,0,230.24160209996626,,10,230.2354871998541,230.24160209996626,230.24160209996626,0.016576800029724836,231.8507458998356,[np.float64(0.36574074074074076)],[np.float64(0.36574074074074076)],[1],[0],[0],[1.6151662999764085],['target'],3,001,2025-09-30_15h49.08.701,Visual Search,,2025.1.1,59.91374820880244,2025-09-30 15h49.20.577847 +0530,
176,0,176,[np.float64(0.004629629629629629)],[np.float64(-0.3685185185185185)],[1],[0],[0],[1.4842461999505758],['target'],176,0,176,0,231.87270729988813,,10,231.86589969997294,231.87270729988813,231.87270729988813,0.014938700012862682,233.35024519986473,[np.float64(0.004629629629629629)],[np.float64(-0.3685185185185185)],[1],[0],[0],[1.4842461999505758],['target'],3,001,2025-09-30_15h49.08.701,Visual Search,,2025.1.1,59.91374820880244,2025-09-30 15h49.20.577847 +0530,
177,0,177,[np.float64(-0.48703703703703705)],[np.float64(0.325)],[1],[0],[0],[1.1949421998579055],['target'],177,0,177,0,233.3646984999068,,5,233.3595808998216,233.3646984999068,233.3646984999068,0.009128399891778827,234.5546214999631,[np.float64(-0.48703703703703705)],[np.float64(0.325)],[1],[0],[0],[1.1949421998579055],['target'],3,001,2025-09-30_15h49.08.701,Visual Search,,2025.1.1,59.91374820880244,2025-09-30 15h49.20.577847 +0530,
178,0,178,[np.float64(0.3990740740740741)],[np.float64(0.46944444444444444)],[1],[0],[0],[1.8277684999629855],['target'],178,0,178,0,234.5760300999973,,10,234.56943319994025,234.5760300999973,234.5760300999973,0.014651899924501777,236.39736159984022,[np.float64(0.3990740740740741)],[np.float64(0.46944444444444444)],[1],[0],[0],[1.8277684999629855],['target'],3,001,2025-09-30_15h49.08.701,Visual Search,,2025.1.1,59.91374820880244,2025-09-30 15h49.20.577847 +0530,
179,0,179,[np.float64(0.1527777777777778)],[np.float64(-0.36574074074074076)],[1],[0],[0],[1.5943694000598043],['target'],179,0,179,0,236.42569729988463,,10,236.4186910998542,236.42569729988463,236.42569729988463,0.021072600036859512,238.01315119978972,[np.float64(0.1527777777777778)],[np.float64(-0.36574074074074076)],[1],[0],[0],[1.5943694000598043],['target'],3,001,2025-09-30_15h49.08.701,Visual Search,,2025.1.1,59.91374820880244,2025-09-30 15h49.20.577847 +0530,
180,0,180,[np.float64(-0.04814814814814815)],[np.float64(-0.462037037037037)],[1],[0],[0],[1.1860899000894278],[None],180,0,180,0,238.03462799987756,,10,238.02797419996932,238.03462799987756,238.03462799987756,0.014637000160291791,239.2142260998953,[np.float64(-0.04814814814814815)],[np.float64(-0.462037037037037)],[1],[0],[0],[1.1860899000894278],[None],3,001,2025-09-30_15h49.08.701,Visual Search,,2025.1.1,59.91374820880244,2025-09-30 15h49.20.577847 +0530,
181,0,181,[np.float64(-0.1925925925925926)],[np.float64(0.3712962962962963)],[1],[0],[0],[1.3027313000056893],['target'],181,0,181,0,239.23781610000879,,10,239.231352499919,239.23781610000879,239.23781610000879,0.016784499865025282,240.53418739978224,[np.float64(-0.1925925925925926)],[np.float64(0.3712962962962963)],[1],[0],[0],[1.3027313000056893],['target'],3,001,2025-09-30_15h49.08.701,Visual Search,,2025.1.1,59.91374820880244,2025-09-30 15h49.20.577847 +0530,
182,0,182,[np.float64(-0.2916666666666667)],[np.float64(0.3148148148148148)],[1],[0],[0],[1.0074342000298202],['target'],182,0,182,0,240.54779340000823,,5,240.54338409984484,240.54779340000823,240.54779340000823,0.009000700199976563,241.5508934999816,[np.float64(-0.2916666666666667)],[np.float64(0.3148148148148148)],[1],[0],[0],[1.0074342000298202],['target'],3,001,2025-09-30_15h49.08.701,Visual Search,,2025.1.1,59.91374820880244,2025-09-30 15h49.20.577847 +0530,
183,0,183,[np.float64(-0.2462962962962963)],[np.float64(-0.4722222222222222)],[1],[0],[0],[1.4813640001229942],['target'],183,0,183,0,241.5712081999518,,10,241.56467419979163,241.5712081999518,241.5712081999518,0.013650400098413229,243.046115799807,[np.float64(-0.2462962962962963)],[np.float64(-0.4722222222222222)],[1],[0],[0],[1.4813640001229942],['target'],3,001,2025-09-30_15h49.08.701,Visual Search,,2025.1.1,59.91374820880244,2025-09-30 15h49.20.577847 +0530,
184,0,184,[np.float64(-0.012962962962962963)],[np.float64(0.425)],[1],[0],[0],[1.4859377001412213],[None],184,0,184,0,243.0686350998003,,10,243.0625211999286,243.0686350998003,243.0686350998003,0.01624849997460842,244.54853639984503,[np.float64(-0.012962962962962963)],[np.float64(0.425)],[1],[0],[0],[1.4859377001412213],[None],3,001,2025-09-30_15h49.08.701,Visual Search,,2025.1.1,59.91374820880244,2025-09-30 15h49.20.577847 +0530,
185,0,185,[np.float64(0.049074074074074076)],[np.float64(0.337037037037037)],[1],[0],[0],[1.0246034001465887],[None],185,0,185,0,244.56150969979353,,5,244.5574149999302,244.56150969979353,244.56150969979353,0.008722299942746758,245.58209139993414,[np.float64(0.049074074074074076)],[np.float64(0.337037037037037)],[1],[0],[0],[1.0246034001465887],[None],3,001,2025-09-30_15h49.08.701,Visual Search,,2025.1.1,59.91374820880244,2025-09-30 15h49.20.577847 +0530,
186,0,186,[np.float64(0.25277777777777777)],[np.float64(0.2175925925925926)],[1],[0],[0],[1.1174170998856425],['target'],186,0,186,0,245.60416049999185,,10,245.59793499996886,245.60416049999185,245.60416049999185,0.015717600006610155,246.71543789980933,[np.float64(0.25277777777777777)],[np.float64(0.2175925925925926)],[1],[0],[0],[1.1174170998856425],['target'],3,001,2025-09-30_15h49.08.701,Visual Search,,2025.1.1,59.91374820880244,2025-09-30 15h49.20.577847 +0530,
187,0,187,[np.float64(0.25)],[np.float64(-0.024074074074074074)],[1],[0],[0],[1.1238190000876784],['target'],187,0,187,0,246.7294233997818,,5,246.72525929985568,246.7294233997818,246.7294233997818,0.009660199983045459,247.84916059998795,[np.float64(0.25)],[np.float64(-0.024074074074074074)],[1],[0],[0],[1.1238190000876784],['target'],3,001,2025-09-30_15h49.08.701,Visual Search,,2025.1.1,59.91374820880244,2025-09-30 15h49.20.577847 +0530,
188,0,188,[np.float64(0.4185185185185185)],[np.float64(0.07314814814814814)],[1],[0],[0],[2.017588200047612],['target'],188,0,188,0,247.86975849978626,,10,247.86359580000862,247.86975849978626,247.86975849978626,0.014299699803814292,249.88123800000176,[np.float64(0.4185185185185185)],[np.float64(0.07314814814814814)],[1],[0],[0],[2.017588200047612],['target'],3,001,2025-09-30_15h49.08.701,Visual Search,,2025.1.1,59.91374820880244,2025-09-30 15h49.20.577847 +0530,
189,0,189,[np.float64(0.23425925925925925)],[np.float64(0.28055555555555556)],[1],[0],[0],[1.4533031999599189],['target'],189,0,189,0,249.90037129982375,,10,249.89430049993098,249.90037129982375,249.90037129982375,0.01295970007777214,251.34775279997848,[np.float64(0.23425925925925925)],[np.float64(0.28055555555555556)],[1],[0],[0],[1.4533031999599189],['target'],3,001,2025-09-30_15h49.08.701,Visual Search,,2025.1.1,59.91374820880244,2025-09-30 15h49.20.577847 +0530,
190,0,190,[np.float64(-0.07685185185185185)],[np.float64(0.26296296296296295)],[1],[0],[0],[1.0522036999464035],['target'],190,0,190,0,251.3702614000067,,10,251.36397439986467,251.3702614000067,251.3702614000067,0.015906000044196844,252.41626899992116,[np.float64(-0.07685185185185185)],[np.float64(0.26296296296296295)],[1],[0],[0],[1.0522036999464035],['target'],3,001,2025-09-30_15h49.08.701,Visual Search,,2025.1.1,59.91374820880244,2025-09-30 15h49.20.577847 +0530,
191,0,191,[np.float64(0.15555555555555556)],[np.float64(-0.03981481481481482)],[1],[0],[0],[1.1681268999818712],['target'],191,0,191,0,252.43810889986344,,10,252.4313906999305,252.43810889986344,252.43810889986344,0.014949999982491136,253.5995870998595,[np.float64(0.15555555555555556)],[np.float64(-0.03981481481481482)],[1],[0],[0],[1.1681268999818712],['target'],3,001,2025-09-30_15h49.08.701,Visual Search,,2025.1.1,59.91374820880244,2025-09-30 15h49.20.577847 +0530,
192,0,192,[np.float64(0.13518518518518519)],[np.float64(-0.15185185185185185)],[1],[0],[0],[1.0340154999867082],[None],192,0,192,0,253.61721970001236,,5,253.6128014998976,253.61721970001236,253.61721970001236,0.01308559998869896,254.64694969984703,[np.float64(0.13518518518518519)],[np.float64(-0.15185185185185185)],[1],[0],[0],[1.0340154999867082],[None],3,001,2025-09-30_15h49.08.701,Visual Search,,2025.1.1,59.91374820880244,2025-09-30 15h49.20.577847 +0530,
193,0,193,[np.float64(-0.04814814814814815)],[np.float64(0.16203703703703703)],[1],[0],[0],[1.2409768998622894],['target'],193,0,193,0,254.6632585998159,,5,254.65888080000877,254.6632585998159,254.6632585998159,0.011702300049364567,255.89995809993707,[np.float64(-0.04814814814814815)],[np.float64(0.16203703703703703)],[1],[0],[0],[1.2409768998622894],['target'],3,001,2025-09-30_15h49.08.701,Visual Search,,2025.1.1,59.91374820880244,2025-09-30 15h49.20.577847 +0530,
194,0,194,[np.float64(-0.3351851851851852)],[np.float64(-0.06481481481481481)],[1],[0],[0],[1.1322582999709994],['target'],194,0,194,0,255.92128849984147,,10,255.91495649982244,255.92128849984147,255.92128849984147,0.014831300126388669,257.0473763998598,[np.float64(-0.3351851851851852)],[np.float64(-0.06481481481481481)],[1],[0],[0],[1.1322582999709994],['target'],3,001,2025-09-30_15h49.08.701,Visual Search,,2025.1.1,59.91374820880244,2025-09-30 15h49.20.577847 +0530,
195,0,195,[np.float64(-0.40185185185185185)],[np.float64(-0.19166666666666668)],[1],[0],[0],[1.5748513999860734],[None],195,0,195,0,257.0626812998671,,5,257.05820749979466,257.0626812998671,257.0626812998671,0.010512199951335788,258.6331557999365,[np.float64(-0.40185185185185185)],[np.float64(-0.19166666666666668)],[1],[0],[0],[1.5748513999860734],[None],3,001,2025-09-30_15h49.08.701,Visual Search,,2025.1.1,59.91374820880244,2025-09-30 15h49.20.577847 +0530,
196,0,196,[np.float64(-0.21203703703703702)],[np.float64(0.37222222222222223)],[1],[0],[0],[1.2654305000323802],[None],196,0,196,0,258.65353079978377,,10,258.6477479999885,258.65353079978377,258.65353079978377,0.01442680018953979,259.91328360000625,[np.float64(-0.21203703703703702)],[np.float64(0.37222222222222223)],[1],[0],[0],[1.2654305000323802],[None],3,001,2025-09-30_15h49.08.701,Visual Search,,2025.1.1,59.91374820880244,2025-09-30 15h49.20.577847 +0530,
197,0,197,[np.float64(0.3592592592592593)],[np.float64(0.10555555555555556)],[1],[0],[0],[1.18626799993217],[None],197,0,197,0,259.9337307999376,,10,259.92714149993844,259.9337307999376,259.9337307999376,0.01370340003632009,261.1135305999778,[np.float64(0.3592592592592593)],[np.float64(0.10555555555555556)],[1],[0],[0],[1.18626799993217],[None],3,001,2025-09-30_15h49.08.701,Visual Search,,2025.1.1,59.91374820880244,2025-09-30 15h49.20.577847 +0530,
198,0,198,[np.float64(0.010185185185185186)],[np.float64(-0.2759259259259259)],[1],[0],[0],[1.2925632998812944],['target'],198,0,198,0,261.1280511999503,,5,261.1228908000048,261.1280511999503,261.1280511999503,0.009139599977061152,262.4155394998379,[np.float64(0.010185185185185186)],[np.float64(-0.2759259259259259)],[1],[0],[0],[1.2925632998812944],['target'],3,001,2025-09-30_15h49.08.701,Visual Search,,2025.1.1,59.91374820880244,2025-09-30 15h49.20.577847 +0530,
199,0,199,[np.float64(0.05555555555555555)],[np.float64(0.2074074074074074)],[1],[0],[0],[1.2208070999477059],['target'],199,0,199,0,262.43653839989565,,10,262.42972969985567,262.43653839989565,262.43653839989565,0.014030699850991368,263.6506580999121,[np.float64(0.05555555555555555)],[np.float64(0.2074074074074074)],[1],[0],[0],[1.2208070999477059],['target'],3,001,2025-09-30_15h49.08.701,Visual Search,,2025.1.1,59.91374820880244,2025-09-30 15h49.20.577847 +0530,
