pos,corr_resp,thisN,thisTrialN,thisRepN,kev_resp.kevs,kev_resp.corr,kev_resp.rt,kev_resp.duration,trials.thisRepN,trials.thisTrialN,trials.thisN,trials.thisIndex,trials_2.thisRepN,trials_2.thisTrialN,trials_2.thisN,trials_2.thisIndex,thisRow.t,notes,trial.started,Fixation.started,line1.started,line2.started,line3.started,line4.started,Fixation.stopped,probe.started,kev_resp.started,trial.stopped,trials.kev_resp.kevs,trials.kev_resp.corr,trials.kev_resp.rt,trials.kev_resp.duration,trials_2.kev_resp.kevs,trials_2.kev_resp.corr,trials_2.kev_resp.rt,trials_2.kev_resp.duration,participant,session,date,expName,expVersion,psvchopvVersion,frameRate,expStart
-50,x,0,0,0,v,0,0.9921135,None,0,0,0,0,,,,,0.0223193,,0.0130226,0.0223193,1.0055062,1.0055062,1.0055062,1.0055062,1.0214762,2.0061276,2.0061276,3.1076236,v,0,0.9921135,None,,,,,4,1,2025-10-03_18h35.42.544,Motor Sequence,,2025.1.1,59.64675995,2025-10-03 18h35.48.043927 +0530
150,v,1,1,0,z,0,0.7354043,None,0,1,1,1,,,,,3.1221126,,3.1080136,3.1221126,4.1232884,4.1232884,4.1232884,4.1232884,4.1232884,5.1060547,5.1060547,5.8421961,z,0,0.7354043,None,,,,,4,1,2025-10-03_18h35.42.544,Motor Sequence,,2025.1.1,59.64675995,2025-10-03 18h35.48.043927 +0530
50,c,2,2,0,c,1,0.8165547,None,0,2,2,2,,,,,5.8563482,,5.8424827,5.8563482,6.8560195,6.8560195,6.8560195,6.8560195,6.8560195,7.8562672,7.8562672,8.6757194,c,1,0.8165547,None,,,,,4,1,2025-10-03_18h35.42.544,Motor Sequence,,2025.1.1,59.64675995,2025-10-03 18h35.48.043927 +0530
-150,z,3,3,0,x,0,0.3546231,None,0,3,3,3,,,,,8.6889931,,8.6759476,8.6889931,9.68859,9.68859,9.68859,9.68859,9.68859,10.6880062,10.6880062,11.0431755,x,0,0.3546231,None,,,,,4,1,2025-10-03_18h35.42.544,Motor Sequence,,2025.1.1,59.64675995,2025-10-03 18h35.48.043927 +0530
-50,x,4,0,1,v,0,0.2748811,None,1,0,4,0,,,,,11.0555393,,11.043439,11.0555393,12.0555562,12.0555562,12.0555562,12.0555562,12.0555562,13.0546729,13.0546729,13.3412145,v,0,0.2748811,None,,,,,4,1,2025-10-03_18h35.42.544,Motor Sequence,,2025.1.1,59.64675995,2025-10-03 18h35.48.043927 +0530
150,v,5,1,1,z,0,0.7217607,None,1,1,5,1,,,,,13.3552151,,13.3415426,13.3552151,14.3549753,14.3549753,14.3549753,14.3549753,14.3549753,15.3549159,15.3549159,16.0926819,z,0,0.7217607,None,,,,,4,1,2025-10-03_18h35.42.544,Motor Sequence,,2025.1.1,59.64675995,2025-10-03 18h35.48.043927 +0530
50,c,6,2,1,c,1,0.1828718,None,1,2,6,2,,,,,16.105369,,16.0930334,16.105369,17.1044828,17.1044828,17.1044828,17.1044828,17.1044828,18.1071284,18.1071284,18.2936054,c,1,0.1828718,None,,,,,4,1,2025-10-03_18h35.42.544,Motor Sequence,,2025.1.1,59.64675995,2025-10-03 18h35.48.043927 +0530
-150,z,7,3,1,x,0,0.2418669,None,1,3,7,3,,,,,18.3058582,,18.2939001,18.3058582,19.3062622,19.3062622,19.3062622,19.3062622,19.3062622,20.3058591,20.3058591,20.5592778,x,0,0.2418669,None,,,,,4,1,2025-10-03_18h35.42.544,Motor Sequence,,2025.1.1,59.64675995,2025-10-03 18h35.48.043927 +0530
-50,x,8,0,2,v,0,0.3904451,None,2,0,8,0,,,,,20.5732196,,20.5595804,20.5732196,21.5726521,21.5726521,21.5726521,21.5726521,21.5726521,22.5727061,22.5727061,22.9767675,v,0,0.3904451,None,,,,,4,1,2025-10-03_18h35.42.544,Motor Sequence,,2025.1.1,59.64675995,2025-10-03 18h35.48.043927 +0530
150,v,9,1,2,z,0,0.2860665,None,2,1,9,1,,,,,22.9897398,,22.9771257,22.9897398,23.9903927,23.9903927,23.9903927,23.9903927,23.9903927,24.9892438,24.9892438,25.2766509,z,0,0.2860665,None,,,,,4,1,2025-10-03_18h35.42.544,Motor Sequence,,2025.1.1,59.64675995,2025-10-03 18h35.48.043927 +0530
50,c,10,2,2,c,1,0.2496688,None,2,2,10,2,,,,,25.2884629,,25.2769385,25.2884629,26.2894376,26.2894376,26.2894376,26.2894376,26.2894376,27.2890209,27.2890209,27.543555,c,1,0.2496688,None,,,,,4,1,2025-10-03_18h35.42.544,Motor Sequence,,2025.1.1,59.64675995,2025-10-03 18h35.48.043927 +0530
-150,z,11,3,2,x,0,0.1543667,None,2,3,11,3,,,,,27.5561627,,27.5437969,27.5561627,28.5556643,28.5556643,28.5556643,28.5556643,28.5556643,29.5563813,29.5563813,29.7242546,x,0,0.1543667,None,,,,,4,1,2025-10-03_18h35.42.544,Motor Sequence,,2025.1.1,59.64675995,2025-10-03 18h35.48.043927 +0530
-50,x,12,0,3,v,0,0.0732183,None,3,0,12,0,,,,,29.7386583,,29.7244739,29.7386583,30.7389656,30.7389656,30.7389656,30.7389656,30.7389656,31.7396079,31.7396079,31.8259833,v,0,0.0732183,None,,,,,4,1,2025-10-03_18h35.42.544,Motor Sequence,,2025.1.1,59.64675995,2025-10-03 18h35.48.043927 +0530
150,v,13,1,3,z,0,1.0079605,None,3,1,13,1,,,,,31.8389783,,31.8262773,31.8389783,32.8389344,32.8389344,32.8389344,32.8389344,32.8389344,33.8389754,33.8389754,34.8580848,z,0,1.0079605,None,,,,,4,1,2025-10-03_18h35.42.544,Motor Sequence,,2025.1.1,59.64675995,2025-10-03 18h35.48.043927 +0530
50,c,14,2,3,c,1,0.3492177,None,3,2,14,2,,,,,34.8727769,,34.85833,34.8727769,35.872312,35.872312,35.872312,35.872312,35.872312,36.8722423,36.8722423,37.2270857,c,1,0.3492177,None,,,,,4,1,2025-10-03_18h35.42.544,Motor Sequence,,2025.1.1,59.64675995,2025-10-03 18h35.48.043927 +0530
-150,z,15,3,3,x,0,0.0529952,None,3,3,15,3,,,,,37.2396964,,37.2274341,37.2396964,38.23947,38.23947,38.23947,38.23947,38.23947,39.2393769,39.2393769,39.293937,x,0,0.0529952,None,,,,,4,1,2025-10-03_18h35.42.544,Motor Sequence,,2025.1.1,59.64675995,2025-10-03 18h35.48.043927 +0530
-50,x,16,0,4,v,0,0.0344797,None,4,0,16,0,,,,,39.3059352,,39.2942227,39.3059352,40.3062503,40.3062503,40.3062503,40.3062503,40.3062503,41.3064708,41.3064708,41.3433621,v,0,0.0344797,None,,,,,4,1,2025-10-03_18h35.42.544,Motor Sequence,,2025.1.1,59.64675995,2025-10-03 18h35.48.043927 +0530
150,v,17,1,4,z,0,0.5506476,None,4,1,17,1,,,,,41.3559608,,41.3436368,41.3559608,42.3561637,42.3561637,42.3561637,42.3561637,42.3561637,43.3556093,43.3556093,43.9084246,z,0,0.5506476,None,,,,,4,1,2025-10-03_18h35.42.544,Motor Sequence,,2025.1.1,59.64675995,2025-10-03 18h35.48.043927 +0530
50,c,18,2,4,c,1,0.266199,None,4,2,18,2,,,,,43.9218224,,43.9087162,43.9218224,44.9232328,44.9232328,44.9232328,44.9232328,44.9232328,45.9226764,45.9226764,46.1922386,c,1,0.266199,None,,,,,4,1,2025-10-03_18h35.42.544,Motor Sequence,,2025.1.1,59.64675995,2025-10-03 18h35.48.043927 +0530
-150,z,19,3,4,x,0,0.3076195,None,4,3,19,3,,,,,46.2061178,,46.1925203,46.2061178,47.2051787,47.2051787,47.2051787,47.2051787,47.2051787,48.2058088,48.2058088,48.525405,x,0,0.3076195,None,,,,,4,1,2025-10-03_18h35.42.544,Motor Sequence,,2025.1.1,59.64675995,2025-10-03 18h35.48.043927 +0530
-50,x,20,0,5,v,0,0.0796388,None,5,0,20,0,,,,,48.5397278,,48.5256965,48.5397278,49.5390283,49.5390283,49.5390283,49.5390283,49.5560588,50.5389784,50.5389784,50.6261156,v,0,0.0796388,None,,,,,4,1,2025-10-03_18h35.42.544,Motor Sequence,,2025.1.1,59.64675995,2025-10-03 18h35.48.043927 +0530
150,v,21,1,5,z,0,0.2346099,None,5,1,21,1,,,,,50.6397559,,50.6264114,50.6397559,51.6384207,51.6384207,51.6384207,51.6384207,51.6384207,52.6385404,52.6385404,52.8761073,z,0,0.2346099,None,,,,,4,1,2025-10-03_18h35.42.544,Motor Sequence,,2025.1.1,59.64675995,2025-10-03 18h35.48.043927 +0530
50,c,22,2,5,z,0,0.9913294,None,5,2,22,2,,,,,52.8892001,,52.876388,52.8892001,53.8882149,53.8882149,53.8882149,53.8882149,53.8882149,54.8888157,54.8888157,55.8904935,z,0,0.9913294,None,,,,,4,1,2025-10-03_18h35.42.544,Motor Sequence,,2025.1.1,59.64675995,2025-10-03 18h35.48.043927 +0530
-150,z,23,3,5,x,0,0.538539,None,5,3,23,3,,,,,55.9053697,,55.8907094,55.9053697,56.8899194,56.8899194,56.8899194,56.8899194,56.9065622,57.9052503,57.9052503,58.4446838,x,0,0.538539,None,,,,,4,1,2025-10-03_18h35.42.544,Motor Sequence,,2025.1.1,59.64675995,2025-10-03 18h35.48.043927 +0530
-50,x,24,0,6,v,0,0.2535376,None,6,0,24,0,,,,,58.45558,,58.4449981,58.45558,59.4564661,59.4564661,59.4564661,59.4564661,59.4564661,60.4554572,60.4554572,60.7103837,v,0,0.2535376,None,,,,,4,1,2025-10-03_18h35.42.544,Motor Sequence,,2025.1.1,59.64675995,2025-10-03 18h35.48.043927 +0530
150,v,25,1,6,z,0,0.2712992,None,6,1,25,1,,,,,60.7221611,,60.710701,60.7221611,61.7215675,61.7215675,61.7215675,61.7215675,61.7215675,62.7227059,62.7227059,63.0091222,z,0,0.2712992,None,,,,,4,1,2025-10-03_18h35.42.544,Motor Sequence,,2025.1.1,59.64675995,2025-10-03 18h35.48.043927 +0530
50,c,26,2,6,c,1,0.400063,None,6,2,26,2,,,,,63.0224397,,63.0094686,63.0224397,64.0217812,64.0217812,64.0217812,64.0217812,64.0217812,65.0218001,65.0218001,65.427193,c,1,0.400063,None,,,,,4,1,2025-10-03_18h35.42.544,Motor Sequence,,2025.1.1,59.64675995,2025-10-03 18h35.48.043927 +0530
-150,z,27,3,6,x,0,0.2730414,None,6,3,27,3,,,,,65.4387482,,65.4275328,65.4387482,66.4387162,66.4387162,66.4387162,66.4387162,66.4387162,67.4389996,67.4389996,67.7250834,x,0,0.2730414,None,,,,,4,1,2025-10-03_18h35.42.544,Motor Sequence,,2025.1.1,59.64675995,2025-10-03 18h35.48.043927 +0530
-50,x,28,0,7,v,0,0.2451008,None,7,0,28,0,,,,,67.7411322,,67.7253544,67.7411322,68.7389454,68.7389454,68.7389454,68.7389454,68.7554618,69.7381328,69.7381328,69.9912983,v,0,0.2451008,None,,,,,4,1,2025-10-03_18h35.42.544,Motor Sequence,,2025.1.1,59.64675995,2025-10-03 18h35.48.043927 +0530
150,v,29,1,7,z,0,1.7337211,None,7,1,29,1,,,,,70.0056671,,69.9915677,70.0056671,71.004914,71.004914,71.004914,71.004914,71.004914,72.004165,72.004165,73.7410783,z,0,1.7337211,None,,,,,4,1,2025-10-03_18h35.42.544,Motor Sequence,,2025.1.1,59.64675995,2025-10-03 18h35.48.043927 +0530
50,c,30,2,7,c,1,0.1161065,None,7,2,30,2,,,,,73.7548047,,73.7413823,73.7548047,74.7568169,74.7568169,74.7568169,74.7568169,74.7568169,75.7545658,75.7545658,75.8766811,c,1,0.1161065,None,,,,,4,1,2025-10-03_18h35.42.544,Motor Sequence,,2025.1.1,59.64675995,2025-10-03 18h35.48.043927 +0530
-150,z,31,3,7,x,0,0.370713,None,7,3,31,3,,,,,75.8891924,,75.8770564,75.8891924,76.8886852,76.8886852,76.8886852,76.8886852,76.8886852,77.8887675,77.8887675,78.2607876,x,0,0.370713,None,,,,,4,1,2025-10-03_18h35.42.544,Motor Sequence,,2025.1.1,59.64675995,2025-10-03 18h35.48.043927 +0530
-50,x,32,0,8,v,0,0.2314907,None,8,0,32,0,,,,,78.2720493,,78.2610944,78.2720493,79.2717725,79.2717725,79.2717725,79.2717725,79.2717725,80.2723122,80.2723122,80.5108199,v,0,0.2314907,None,,,,,4,1,2025-10-03_18h35.42.544,Motor Sequence,,2025.1.1,59.64675995,2025-10-03 18h35.48.043927 +0530
150,v,33,1,8,z,0,0.2387969,None,8,1,33,1,,,,,80.521971,,80.5111714,80.521971,81.521968,81.521968,81.521968,81.521968,81.521968,82.5215302,82.5215302,82.7759339,z,0,0.2387969,None,,,,,4,1,2025-10-03_18h35.42.544,Motor Sequence,,2025.1.1,59.64675995,2025-10-03 18h35.48.043927 +0530
50,c,34,2,8,c,1,0.0440311,None,8,2,34,2,,,,,82.7890026,,82.7762411,82.7890026,83.7887367,83.7887367,83.7887367,83.7887367,83.7887367,84.7881405,84.7881405,84.8418725,c,1,0.0440311,None,,,,,4,1,2025-10-03_18h35.42.544,Motor Sequence,,2025.1.1,59.64675995,2025-10-03 18h35.48.043927 +0530
-150,z,35,3,8,x,0,0.5147807,None,8,3,35,3,,,,,84.8556097,,84.8421583,84.8556097,85.855552,85.855552,85.855552,85.855552,85.855552,86.8553697,86.8553697,87.3774514,x,0,0.5147807,None,,,,,4,1,2025-10-03_18h35.42.544,Motor Sequence,,2025.1.1,59.64675995,2025-10-03 18h35.48.043927 +0530
-50,x,36,0,9,v,0,0.2927699,None,9,0,36,0,,,,,87.3888827,,87.3777832,87.3888827,88.3885857,88.3885857,88.3885857,88.3885857,88.3885857,89.3888448,89.3888448,89.6912575,v,0,0.2927699,None,,,,,4,1,2025-10-03_18h35.42.544,Motor Sequence,,2025.1.1,59.64675995,2025-10-03 18h35.48.043927 +0530
150,v,37,1,9,z,0,0.4754399,None,9,1,37,1,,,,,89.7054855,,89.6915544,89.7054855,90.7049276,90.7049276,90.7049276,90.7049276,90.7049276,91.7050977,91.7050977,92.1910736,z,0,0.4754399,None,,,,,4,1,2025-10-03_18h35.42.544,Motor Sequence,,2025.1.1,59.64675995,2025-10-03 18h35.48.043927 +0530
50,c,38,2,9,c,1,0.0832626,None,9,2,38,2,,,,,92.2059129,,92.1913435,92.2059129,93.2054949,93.2054949,93.2054949,93.2054949,93.2054949,94.2055252,94.2055252,94.2922938,c,1,0.0832626,None,,,,,4,1,2025-10-03_18h35.42.544,Motor Sequence,,2025.1.1,59.64675995,2025-10-03 18h35.48.043927 +0530
-150,z,39,3,9,x,0,0.4066592,None,9,3,39,3,,,,,94.3053765,,94.2925977,94.3053765,95.3050561,95.3050561,95.3050561,95.3050561,95.3050561,96.3052261,96.3052261,96.7251783,x,0,0.4066592,None,,,,,4,1,2025-10-03_18h35.42.544,Motor Sequence,,2025.1.1,59.64675995,2025-10-03 18h35.48.043927 +0530
-50,x,40,0,10,v,0,0.2532212,None,10,0,40,0,,,,,96.7386101,,96.7254692,96.7386101,97.7377002,97.7377002,97.7377002,97.7377002,97.7377002,98.7378973,98.7378973,98.9928385,v,0,0.2532212,None,,,,,4,1,2025-10-03_18h35.42.544,Motor Sequence,,2025.1.1,59.64675995,2025-10-03 18h35.48.043927 +0530
150,v,41,1,10,z,0,0.707063,None,10,1,41,1,,,,,99.0053203,,98.9933024,99.0053203,100.0054318,100.0054318,100.0054318,100.0054318,100.0054318,101.0050558,101.0050558,101.7247556,z,0,0.707063,None,,,,,4,1,2025-10-03_18h35.42.544,Motor Sequence,,2025.1.1,59.64675995,2025-10-03 18h35.48.043927 +0530
50,c,42,2,10,c,1,0.9544281,None,10,2,42,2,,,,,101.7383549,,101.7250312,101.7383549,102.7385249,102.7385249,102.7385249,102.7385249,102.7385249,103.738297,103.738297,104.6948461,c,1,0.9544281,None,,,,,4,1,2025-10-03_18h35.42.544,Motor Sequence,,2025.1.1,59.64675995,2025-10-03 18h35.48.043927 +0530
-150,z,43,3,10,z,1,1.0048085,None,10,3,43,3,,,,,104.7056573,,104.6951919,104.7056573,105.705548,105.705548,105.705548,105.705548,105.705548,106.70502,106.70502,107.724996,z,1,1.0048085,None,,,,,4,1,2025-10-03_18h35.42.544,Motor Sequence,,2025.1.1,59.64675995,2025-10-03 18h35.48.043927 +0530
-50,x,44,0,11,v,0,0.423633,None,11,0,44,0,,,,,107.7383489,,107.7252954,107.7383489,108.7379299,108.7379299,108.7379299,108.7379299,108.7379299,109.7381068,109.7381068,110.1745029,v,0,0.423633,None,,,,,4,1,2025-10-03_18h35.42.544,Motor Sequence,,2025.1.1,59.64675995,2025-10-03 18h35.48.043927 +0530
150,v,45,1,11,z,0,0.4522345,None,11,1,45,1,,,,,110.1899209,,110.1747797,110.1899209,111.1889318,111.1889318,111.1889318,111.1889318,111.1889318,112.1880174,112.1880174,112.6567782,z,0,0.4522345,None,,,,,4,1,2025-10-03_18h35.42.544,Motor Sequence,,2025.1.1,59.64675995,2025-10-03 18h35.48.043927 +0530
50,c,46,2,11,c,1,0.5054891,None,11,2,46,2,,,,,112.6711623,,112.6570519,112.6711623,113.6721887,113.6721887,113.6721887,113.6721887,113.6721887,114.6712186,114.6712186,115.1909016,c,1,0.5054891,None,,,,,4,1,2025-10-03_18h35.42.544,Motor Sequence,,2025.1.1,59.64675995,2025-10-03 18h35.48.043927 +0530
-150,z,47,3,11,x,0,0.2783838,None,11,3,47,3,,,,,115.2054277,,115.1911763,115.2054277,116.2039536,116.2039536,116.2039536,116.2039536,116.2039536,117.2049021,117.2049021,117.4915861,x,0,0.2783838,None,,,,,4,1,2025-10-03_18h35.42.544,Motor Sequence,,2025.1.1,59.64675995,2025-10-03 18h35.48.043927 +0530
-50,x,48,0,12,v,0,0.1275912,None,12,0,48,0,,,,,117.5066578,,117.4918878,117.5066578,118.504844,118.504844,118.504844,118.504844,118.521142,119.505159,119.505159,119.641598,v,0,0.1275912,None,,,,,4,1,2025-10-03_18h35.42.544,Motor Sequence,,2025.1.1,59.64675995,2025-10-03 18h35.48.043927 +0530
150,v,49,1,12,z,0,0.3612351,None,12,1,49,1,,,,,119.6557293,,119.6419002,119.6557293,120.6548327,120.6548327,120.6548327,120.6548327,120.6548327,121.6543429,121.6543429,122.0247776,z,0,0.3612351,None,,,,,4,1,2025-10-03_18h35.42.544,Motor Sequence,,2025.1.1,59.64675995,2025-10-03 18h35.48.043927 +0530
50,c,50,2,12,c,1,0.3041973,None,12,2,50,2,,,,,122.0386627,,122.0250949,122.0386627,123.0381315,123.0381315,123.0381315,123.0381315,123.0381315,124.0387439,124.0387439,124.3588851,c,1,0.3041973,None,,,,,4,1,2025-10-03_18h35.42.544,Motor Sequence,,2025.1.1,59.64675995,2025-10-03 18h35.48.043927 +0530
-150,z,51,3,12,x,0,0.3109929,None,12,3,51,3,,,,,124.3711927,,124.3592133,124.3711927,125.3708518,125.3708518,125.3708518,125.3708518,125.3708518,126.3711858,126.3711858,126.691225,x,0,0.3109929,None,,,,,4,1,2025-10-03_18h35.42.544,Motor Sequence,,2025.1.1,59.64675995,2025-10-03 18h35.48.043927 +0530
-50,x,52,0,13,v,0,0.2069847,None,13,0,52,0,,,,,126.7055802,,126.6915106,126.7055802,127.7045823,127.7045823,127.7045823,127.7045823,127.7045823,128.7048179,128.7048179,128.9237295,v,0,0.2069847,None,,,,,4,1,2025-10-03_18h35.42.544,Motor Sequence,,2025.1.1,59.64675995,2025-10-03 18h35.48.043927 +0530
150,v,53,1,13,z,0,0.9051764,None,13,1,53,1,,,,,128.938134,,128.923971,128.938134,129.9371982,129.9371982,129.9371982,129.9371982,129.9371982,130.9388013,130.9388013,131.8602008,z,0,0.9051764,None,,,,,4,1,2025-10-03_18h35.42.544,Motor Sequence,,2025.1.1,59.64675995,2025-10-03 18h35.48.043927 +0530
50,c,54,2,13,c,1,0.2964381,None,13,2,54,2,,,,,131.8721986,,131.8605842,131.8721986,132.8709597,132.8709597,132.8709597,132.8709597,132.8709597,133.8726612,133.8726612,134.1756541,c,1,0.2964381,None,,,,,4,1,2025-10-03_18h35.42.544,Motor Sequence,,2025.1.1,59.64675995,2025-10-03 18h35.48.043927 +0530
-150,z,55,3,13,x,0,0.4687435,None,13,3,55,3,,,,,134.1880181,,134.175995,134.1880181,135.1882073,135.1882073,135.1882073,135.1882073,135.1882073,136.1882649,136.1882649,136.6605579,x,0,0.4687435,None,,,,,4,1,2025-10-03_18h35.42.544,Motor Sequence,,2025.1.1,59.64675995,2025-10-03 18h35.48.043927 +0530
-50,x,56,0,14,v,0,0.2849171,None,14,0,56,0,,,,,136.6715393,,136.6608338,136.6715393,137.6715896,137.6715896,137.6715896,137.6715896,137.6715896,138.6699209,138.6699209,138.9571064,v,0,0.2849171,None,,,,,4,1,2025-10-03_18h35.42.544,Motor Sequence,,2025.1.1,59.64675995,2025-10-03 18h35.48.043927 +0530
150,v,57,1,14,z,0,0.1467558,None,14,1,57,1,,,,,138.9704361,,138.957348,138.9704361,139.9728078,139.9728078,139.9728078,139.9728078,139.9728078,140.9714005,140.9714005,141.126782,z,0,0.1467558,None,,,,,4,1,2025-10-03_18h35.42.544,Motor Sequence,,2025.1.1,59.64675995,2025-10-03 18h35.48.043927 +0530
50,c,58,2,14,c,1,0.2133847,None,14,2,58,2,,,,,141.1369828,,141.1273615,141.1369828,142.1385405,142.1385405,142.1385405,142.1385405,142.1385405,143.1384584,143.1384584,143.3594351,c,1,0.2133847,None,,,,,4,1,2025-10-03_18h35.42.544,Motor Sequence,,2025.1.1,59.64675995,2025-10-03 18h35.48.043927 +0530
-150,z,59,3,14,x,0,0.5510887,None,14,3,59,3,,,,,143.3715541,,143.3598111,143.3715541,144.3701789,144.3701789,144.3701789,144.3701789,144.3701789,145.3704344,145.3704344,145.9224018,x,0,0.5510887,None,,,,,4,1,2025-10-03_18h35.42.544,Motor Sequence,,2025.1.1,59.64675995,2025-10-03 18h35.48.043927 +0530
-50,x,60,0,15,v,0,0.2864746,None,15,0,60,0,,,,,145.9375189,,145.9225935,145.9375189,146.9206427,146.9206427,146.9206427,146.9206427,146.9368667,147.9376592,147.9376592,148.2271392,v,0,0.2864746,None,,,,,4,1,2025-10-03_18h35.42.544,Motor Sequence,,2025.1.1,59.64675995,2025-10-03 18h35.48.043927 +0530
150,v,61,1,15,z,0,0.2605994,None,15,1,61,1,,,,,148.2382933,,148.2274685,148.2382933,149.2386339,149.2386339,149.2386339,149.2386339,149.2386339,150.2380219,150.2380219,150.5076606,z,0,0.2605994,None,,,,,4,1,2025-10-03_18h35.42.544,Motor Sequence,,2025.1.1,59.64675995,2025-10-03 18h35.48.043927 +0530
50,c,62,2,15,c,1,0.2847052,None,15,2,62,2,,,,,150.5218074,,150.5079421,150.5218074,151.5211943,151.5211943,151.5211943,151.5211943,151.5211943,152.5211919,152.5211919,152.8087956,c,1,0.2847052,None,,,,,4,1,2025-10-03_18h35.42.544,Motor Sequence,,2025.1.1,59.64675995,2025-10-03 18h35.48.043927 +0530
-150,z,63,3,15,x,0,0.3806799,None,15,3,63,3,,,,,152.8213159,,152.8090865,152.8213159,153.8211331,153.8211331,153.8211331,153.8211331,153.8211331,154.8208899,154.8208899,155.2088579,x,0,0.3806799,None,,,,,4,1,2025-10-03_18h35.42.544,Motor Sequence,,2025.1.1,59.64675995,2025-10-03 18h35.48.043927 +0530
-50,x,64,0,16,v,0,0.4237234,None,16,0,64,0,,,,,155.221549,,155.2091884,155.221549,156.2215789,156.2215789,156.2215789,156.2215789,156.2215789,157.2209895,157.2209895,157.6590678,v,0,0.4237234,None,,,,,4,1,2025-10-03_18h35.42.544,Motor Sequence,,2025.1.1,59.64675995,2025-10-03 18h35.48.043927 +0530
150,v,65,1,16,z,0,0.6964865,None,16,1,65,1,,,,,157.6713945,,157.6593457,157.6713945,158.6708976,158.6708976,158.6708976,158.6708976,158.6708976,159.6715572,159.6715572,160.3745466,z,0,0.6964865,None,,,,,4,1,2025-10-03_18h35.42.544,Motor Sequence,,2025.1.1,59.64675995,2025-10-03 18h35.48.043927 +0530
50,c,66,2,16,c,1,0.3377493,None,16,2,66,2,,,,,160.3881216,,160.3748181,160.3881216,161.3881663,161.3881663,161.3881663,161.3881663,161.3881663,162.3876129,162.3876129,162.7269196,c,1,0.3377493,None,,,,,4,1,2025-10-03_18h35.42.544,Motor Sequence,,2025.1.1,59.64675995,2025-10-03 18h35.48.043927 +0530
-150,z,67,3,16,x,0,0.1503729,None,16,3,67,3,,,,,162.7379135,,162.7272363,162.7379135,163.7379146,163.7379146,163.7379146,163.7379146,163.7379146,164.738332,164.738332,164.8922303,x,0,0.1503729,None,,,,,4,1,2025-10-03_18h35.42.544,Motor Sequence,,2025.1.1,59.64675995,2025-10-03 18h35.48.043927 +0530
-50,x,68,0,17,v,0,0.2116353,None,17,0,68,0,,,,,164.9055964,,164.8925444,164.9055964,165.9043679,165.9043679,165.9043679,165.9043679,165.9043679,166.9037555,166.9037555,167.1245365,v,0,0.2116353,None,,,,,4,1,2025-10-03_18h35.42.544,Motor Sequence,,2025.1.1,59.64675995,2025-10-03 18h35.48.043927 +0530
150,v,69,1,17,z,0,0.2472246,None,17,1,69,1,,,,,167.1385088,,167.1248472,167.1385088,168.1376736,168.1376736,168.1376736,168.1376736,168.1376736,169.1376737,169.1376737,169.3915267,z,0,0.2472246,None,,,,,4,1,2025-10-03_18h35.42.544,Motor Sequence,,2025.1.1,59.64675995,2025-10-03 18h35.48.043927 +0530
50,c,70,2,17,c,1,0.2661116,None,17,2,70,2,,,,,169.404968,,169.3918308,169.404968,170.404285,170.404285,170.404285,170.404285,170.404285,171.4031608,171.4031608,171.6758475,c,1,0.2661116,None,,,,,4,1,2025-10-03_18h35.42.544,Motor Sequence,,2025.1.1,59.64675995,2025-10-03 18h35.48.043927 +0530
-150,z,71,3,17,x,0,0.2987335,None,17,3,71,3,,,,,171.6892487,,171.6762005,171.6892487,172.6873206,172.6873206,172.6873206,172.6873206,172.6873206,173.6873027,173.6873027,173.9918073,x,0,0.2987335,None,,,,,4,1,2025-10-03_18h35.42.544,Motor Sequence,,2025.1.1,59.64675995,2025-10-03 18h35.48.043927 +0530
-50,x,72,0,18,v,0,0.2445373,None,18,0,72,0,,,,,174.0045888,,173.9921124,174.0045888,175.005037,175.005037,175.005037,175.005037,175.005037,176.0041399,176.0041399,176.2569332,v,0,0.2445373,None,,,,,4,1,2025-10-03_18h35.42.544,Motor Sequence,,2025.1.1,59.64675995,2025-10-03 18h35.48.043927 +0530
150,v,73,1,18,z,0,0.3077554,None,18,1,73,1,,,,,176.2720199,,176.2572008,176.2720199,177.2710254,177.2710254,177.2710254,177.2710254,177.2710254,178.2716027,178.2716027,178.5910734,z,0,0.3077554,None,,,,,4,1,2025-10-03_18h35.42.544,Motor Sequence,,2025.1.1,59.64675995,2025-10-03 18h35.48.043927 +0530
50,c,74,2,18,c,1,0.2712692,None,18,2,74,2,,,,,178.6048174,,178.5914012,178.6048174,179.6046889,179.6046889,179.6046889,179.6046889,179.6046889,180.6043614,180.6043614,180.8762302,c,1,0.2712692,None,,,,,4,1,2025-10-03_18h35.42.544,Motor Sequence,,2025.1.1,59.64675995,2025-10-03 18h35.48.043927 +0530
-150,z,75,3,18,x,0,0.3136219,None,18,3,75,3,,,,,180.8879276,,180.8765883,180.8879276,181.8872827,181.8872827,181.8872827,181.8872827,181.8872827,182.8873534,182.8873534,183.2056541,x,0,0.3136219,None,,,,,4,1,2025-10-03_18h35.42.544,Motor Sequence,,2025.1.1,59.64675995,2025-10-03 18h35.48.043927 +0530
-50,x,76,0,19,v,0,0.3384434,None,19,0,76,0,,,,,183.2202812,,183.2058586,183.2202812,184.2052294,184.2052294,184.2052294,184.2052294,184.2209468,185.220368,185.220368,185.5746877,v,0,0.3384434,None,,,,,4,1,2025-10-03_18h35.42.544,Motor Sequence,,2025.1.1,59.64675995,2025-10-03 18h35.48.043927 +0530
150,v,77,1,19,z,0,0.8603476,None,19,1,77,1,,,,,185.5877748,,185.5750295,185.5877748,186.5875979,186.5875979,186.5875979,186.5875979,186.5875979,187.5881695,187.5881695,188.458282,z,0,0.8603476,None,,,,,4,1,2025-10-03_18h35.42.544,Motor Sequence,,2025.1.1,59.64675995,2025-10-03 18h35.48.043927 +0530
50,c,78,2,19,c,1,0.3149715,None,19,2,78,2,,,,,188.4710107,,188.4585741,188.4710107,189.4709357,189.4709357,189.4709357,189.4709357,189.4709357,190.4705345,190.4705345,190.7935095,c,1,0.3149715,None,,,,,4,1,2025-10-03_18h35.42.544,Motor Sequence,,2025.1.1,59.64675995,2025-10-03 18h35.48.043927 +0530
-150,z,79,3,19,x,0,0.2490699,None,19,3,79,3,,,,,190.8042069,,190.7938153,190.8042069,191.8044371,191.8044371,191.8044371,191.8044371,191.8044371,192.804933,192.804933,193.0573301,x,0,0.2490699,None,,,,,4,1,2025-10-03_18h35.42.544,Motor Sequence,,2025.1.1,59.64675995,2025-10-03 18h35.48.043927 +0530
-50,x,80,0,20,v,0,0.2705915,None,20,0,80,0,,,,,193.0710109,,193.0576079,193.0710109,194.0711416,194.0711416,194.0711416,194.0711416,194.0711416,195.0709565,195.0709565,195.342375,v,0,0.2705915,None,,,,,4,1,2025-10-03_18h35.42.544,Motor Sequence,,2025.1.1,59.64675995,2025-10-03 18h35.48.043927 +0530
150,v,81,1,20,z,0,0.2816532,None,20,1,81,1,,,,,195.3541984,,195.3427183,195.3541984,196.3539693,196.3539693,196.3539693,196.3539693,196.3539693,197.3537754,197.3537754,197.6428146,z,0,0.2816532,None,,,,,4,1,2025-10-03_18h35.42.544,Motor Sequence,,2025.1.1,59.64675995,2025-10-03 18h35.48.043927 +0530
50,c,82,2,20,c,1,0.7230685,None,20,2,82,2,,,,,197.654203,,197.6431545,197.654203,198.6546098,198.6546098,198.6546098,198.6546098,198.6546098,199.6537257,199.6537257,200.3901752,c,1,0.7230685,None,,,,,4,1,2025-10-03_18h35.42.544,Motor Sequence,,2025.1.1,59.64675995,2025-10-03 18h35.48.043927 +0530
-150,z,83,3,20,x,0,0.266912,None,20,3,83,3,,,,,200.4037779,,200.390472,200.4037779,201.4043746,201.4043746,201.4043746,201.4043746,201.4043746,202.4035554,202.4035554,202.6745157,x,0,0.266912,None,,,,,4,1,2025-10-03_18h35.42.544,Motor Sequence,,2025.1.1,59.64675995,2025-10-03 18h35.48.043927 +0530
-50,x,84,0,21,v,0,0.298064,None,21,0,84,0,,,,,202.6877166,,202.6748076,202.6877166,203.6873885,203.6873885,203.6873885,203.6873885,203.6873885,204.6865953,204.6865953,204.992091,v,0,0.298064,None,,,,,4,1,2025-10-03_18h35.42.544,Motor Sequence,,2025.1.1,59.64675995,2025-10-03 18h35.48.043927 +0530
150,v,85,1,21,c,0,0.4763527,None,21,1,85,1,,,,,205.0042765,,204.9924673,205.0042765,206.0043769,206.0043769,206.0043769,206.0043769,206.0043769,207.0036633,207.0036633,207.4915541,c,0,0.4763527,None,,,,,4,1,2025-10-03_18h35.42.544,Motor Sequence,,2025.1.1,59.64675995,2025-10-03 18h35.48.043927 +0530
50,c,86,2,21,z,0,0.1697957,None,21,2,86,2,,,,,207.5041586,,207.491963,207.5041586,208.5038953,208.5038953,208.5038953,208.5038953,208.5038953,209.5035944,209.5035944,209.6748682,z,0,0.1697957,None,,,,,4,1,2025-10-03_18h35.42.544,Motor Sequence,,2025.1.1,59.64675995,2025-10-03 18h35.48.043927 +0530
-150,z,87,3,21,x,0,0.0254526,None,21,3,87,3,,,,,209.6874611,,209.6751479,209.6874611,210.6871303,210.6871303,210.6871303,210.6871303,210.6871303,211.6872865,211.6872865,211.7242284,x,0,0.0254526,None,,,,,4,1,2025-10-03_18h35.42.544,Motor Sequence,,2025.1.1,59.64675995,2025-10-03 18h35.48.043927 +0530
-50,x,88,0,22,v,0,0.2351489,None,22,0,88,0,,,,,211.73791,,211.7245314,211.73791,212.738012,212.738012,212.738012,212.738012,212.738012,213.7376788,213.7376788,213.9747833,v,0,0.2351489,None,,,,,4,1,2025-10-03_18h35.42.544,Motor Sequence,,2025.1.1,59.64675995,2025-10-03 18h35.48.043927 +0530
150,v,89,1,22,z,0,0.5185926,None,22,1,89,1,,,,,213.9872817,,213.97507,213.9872817,214.9869617,214.9869617,214.9869617,214.9869617,214.9869617,215.9873391,215.9873391,216.5093992,z,0,0.5185926,None,,,,,4,1,2025-10-03_18h35.42.544,Motor Sequence,,2025.1.1,59.64675995,2025-10-03 18h35.48.043927 +0530
50,c,90,2,22,c,1,0.5076509,None,22,2,90,2,,,,,216.5210281,,216.5097189,216.5210281,217.5201798,217.5201798,217.5201798,217.5201798,217.5201798,218.5203487,218.5203487,219.0406188,c,1,0.5076509,None,,,,,4,1,2025-10-03_18h35.42.544,Motor Sequence,,2025.1.1,59.64675995,2025-10-03 18h35.48.043927 +0530
-150,z,91,3,22,x,0,0.2256441,None,22,3,91,3,,,,,219.0545872,,219.0409241,219.0545872,220.0542224,220.0542224,220.0542224,220.0542224,220.0542224,221.0536531,221.0536531,221.2900082,x,0,0.2256441,None,,,,,4,1,2025-10-03_18h35.42.544,Motor Sequence,,2025.1.1,59.64675995,2025-10-03 18h35.48.043927 +0530
-50,x,92,0,23,v,0,0.4907269,None,23,0,92,0,,,,,221.30393,,221.2903084,221.30393,222.3036752,222.3036752,222.3036752,222.3036752,222.3036752,223.3037857,223.3037857,223.8080405,v,0,0.4907269,None,,,,,4,1,2025-10-03_18h35.42.544,Motor Sequence,,2025.1.1,59.64675995,2025-10-03 18h35.48.043927 +0530
150,v,93,1,23,z,0,0.1666665,None,23,1,93,1,,,,,223.8224029,,223.8084043,223.8224029,224.8213745,224.8213745,224.8213745,224.8213745,224.8378355,225.8204938,225.8204938,225.9940161,z,0,0.1666665,None,,,,,4,1,2025-10-03_18h35.42.544,Motor Sequence,,2025.1.1,59.64675995,2025-10-03 18h35.48.043927 +0530
50,c,94,2,23,c,1,0.792262,None,23,2,94,2,,,,,226.0037729,,225.9943065,226.0037729,227.004541,227.004541,227.004541,227.004541,227.004541,228.004142,228.004142,228.8068562,c,1,0.792262,None,,,,,4,1,2025-10-03_18h35.42.544,Motor Sequence,,2025.1.1,59.64675995,2025-10-03 18h35.48.043927 +0530
-150,z,95,3,23,x,0,0.1863224,None,23,3,95,3,,,,,228.8209106,,228.8071273,228.8209106,229.8206123,229.8206123,229.8206123,229.8206123,229.8206123,230.8205613,230.8205613,231.0247583,x,0,0.1863224,None,,,,,4,1,2025-10-03_18h35.42.544,Motor Sequence,,2025.1.1,59.64675995,2025-10-03 18h35.48.043927 +0530
-50,x,96,0,24,v,0,0.1594801,None,24,0,96,0,,,,,231.0375301,,231.0251878,231.0375301,232.0364241,232.0364241,232.0364241,232.0364241,232.0524702,233.035833,233.035833,233.2049846,v,0,0.1594801,None,,,,,4,1,2025-10-03_18h35.42.544,Motor Sequence,,2025.1.1,59.64675995,2025-10-03 18h35.48.043927 +0530
150,v,97,1,24,z,0,0.0468085,None,24,1,97,1,,,,,233.2195159,,233.2052692,233.2195159,234.218957,234.218957,234.218957,234.218957,234.218957,235.2191464,235.2191464,235.2714097,z,0,0.0468085,None,,,,,4,1,2025-10-03_18h35.42.544,Motor Sequence,,2025.1.1,59.64675995,2025-10-03 18h35.48.043927 +0530
50,c,98,2,24,c,1,0.1144182,None,24,2,98,2,,,,,235.2861666,,235.2716398,235.2861666,236.2868564,236.2868564,236.2868564,236.2868564,236.2868564,237.2700674,237.2700674,237.3913644,c,1,0.1144182,None,,,,,4,1,2025-10-03_18h35.42.544,Motor Sequence,,2025.1.1,59.64675995,2025-10-03 18h35.48.043927 +0530
-150,z,99,3,24,x,0,0.4034413,None,24,3,99,3,,,,,237.4042733,,237.3917465,237.4042733,238.4039909,238.4039909,238.4039909,238.4039909,238.4039909,239.4038991,239.4038991,239.8085048,x,0,0.4034413,None,,,,,4,1,2025-10-03_18h35.42.544,Motor Sequence,,2025.1.1,59.64675995,2025-10-03 18h35.48.043927 +0530
-50,x,100,0,25,v,0,0.2644217,None,25,0,100,0,,,,,239.8202285,,239.8088408,239.8202285,240.8204731,240.8204731,240.8204731,240.8204731,240.8204731,241.8209707,241.8209707,242.0881833,v,0,0.2644217,None,,,,,4,1,2025-10-03_18h35.42.544,Motor Sequence,,2025.1.1,59.64675995,2025-10-03 18h35.48.043927 +0530
150,v,101,1,25,z,0,0.2662479,None,25,1,101,1,,,,,242.1026213,,242.0884276,242.1026213,243.1032341,243.1032341,243.1032341,243.1032341,243.1032341,244.1036513,244.1036513,244.3754393,z,0,0.2662479,None,,,,,4,1,2025-10-03_18h35.42.544,Motor Sequence,,2025.1.1,59.64675995,2025-10-03 18h35.48.043927 +0530
50,c,102,2,25,c,1,0.2551612,None,25,2,102,2,,,,,244.3869143,,244.375746,244.3869143,245.3873435,245.3873435,245.3873435,245.3873435,245.3873435,246.3870528,246.3870528,246.656304,c,1,0.2551612,None,,,,,4,1,2025-10-03_18h35.42.544,Motor Sequence,,2025.1.1,59.64675995,2025-10-03 18h35.48.043927 +0530
-150,z,103,3,25,x,0,0.2743062,None,25,3,103,3,,,,,246.6708786,,246.6565806,246.6708786,247.670733,247.670733,247.670733,247.670733,247.670733,248.6714488,248.6714488,248.9560475,x,0,0.2743062,None,,,,,4,1,2025-10-03_18h35.42.544,Motor Sequence,,2025.1.1,59.64675995,2025-10-03 18h35.48.043927 +0530
-50,x,104,0,26,v,0,0.1647099,None,26,0,104,0,,,,,248.9702724,,248.9563346,248.9702724,249.9699619,249.9699619,249.9699619,249.9699619,249.9699619,250.9704943,250.9704943,251.141617,v,0,0.1647099,None,,,,,4,1,2025-10-03_18h35.42.544,Motor Sequence,,2025.1.1,59.64675995,2025-10-03 18h35.48.043927 +0530
150,v,105,1,26,z,0,0.6606602,None,26,1,105,1,,,,,251.153488,,251.1419405,251.153488,252.1531536,252.1531536,252.1531536,252.1531536,252.1531536,253.1543871,253.1543871,253.8232414,z,0,0.6606602,None,,,,,4,1,2025-10-03_18h35.42.544,Motor Sequence,,2025.1.1,59.64675995,2025-10-03 18h35.48.043927 +0530
50,c,106,2,26,c,1,0.089941,None,26,2,106,2,,,,,253.8380535,,253.8235536,253.8380535,254.8368169,254.8368169,254.8368169,254.8368169,254.8368169,255.8363948,255.8363948,255.9395349,c,1,0.089941,None,,,,,4,1,2025-10-03_18h35.42.544,Motor Sequence,,2025.1.1,59.64675995,2025-10-03 18h35.48.043927 +0530
-150,z,107,3,26,x,0,0.4080772,None,26,3,107,3,,,,,255.9538233,,255.9397976,255.9538233,256.9538383,256.9538383,256.9538383,256.9538383,256.9538383,257.9529407,257.9529407,258.3742294,x,0,0.4080772,None,,,,,4,1,2025-10-03_18h35.42.544,Motor Sequence,,2025.1.1,59.64675995,2025-10-03 18h35.48.043927 +0530
-50,x,108,0,27,v,0,0.1887845,None,27,0,108,0,,,,,258.3874423,,258.3745615,258.3874423,259.3874474,259.3874474,259.3874474,259.3874474,259.3874474,260.3867927,260.3867927,260.5895594,v,0,0.1887845,None,,,,,4,1,2025-10-03_18h35.42.544,Motor Sequence,,2025.1.1,59.64675995,2025-10-03 18h35.48.043927 +0530
150,v,109,1,27,z,0,0.5913047,None,27,1,109,1,,,,,260.6029971,,260.58984,260.6029971,261.6035401,261.6035401,261.6035401,261.6035401,261.6035401,262.6034509,262.6034509,263.2060587,z,0,0.5913047,None,,,,,4,1,2025-10-03_18h35.42.544,Motor Sequence,,2025.1.1,59.64675995,2025-10-03 18h35.48.043927 +0530
50,c,110,2,27,c,1,0.3079793,None,27,2,110,2,,,,,263.2203394,,263.2063113,263.2203394,264.2200393,264.2200393,264.2200393,264.2200393,264.2200393,265.2203686,265.2203686,265.5385385,c,1,0.3079793,None,,,,,4,1,2025-10-03_18h35.42.544,Motor Sequence,,2025.1.1,59.64675995,2025-10-03 18h35.48.043927 +0530
-150,z,111,3,27,x,0,0.2181435,None,27,3,111,3,,,,,265.5526805,,265.5387931,265.5526805,266.552458,266.552458,266.552458,266.552458,266.552458,267.5530941,267.5530941,267.7735878,x,0,0.2181435,None,,,,,4,1,2025-10-03_18h35.42.544,Motor Sequence,,2025.1.1,59.64675995,2025-10-03 18h35.48.043927 +0530
-50,x,112,0,28,v,0,0.2725891,None,28,0,112,0,,,,,267.7870425,,267.7738718,267.7870425,268.7869449,268.7869449,268.7869449,268.7869449,268.7869449,269.7870791,269.7870791,270.0736894,v,0,0.2725891,None,,,,,4,1,2025-10-03_18h35.42.544,Motor Sequence,,2025.1.1,59.64675995,2025-10-03 18h35.48.043927 +0530
150,v,113,1,28,x,0,0.3361264,None,28,1,113,1,,,,,270.0870624,,270.0740512,270.0870624,271.086873,271.086873,271.086873,271.086873,271.086873,272.0872306,272.0872306,272.4238533,x,0,0.3361264,None,,,,,4,1,2025-10-03_18h35.42.544,Motor Sequence,,2025.1.1,59.64675995,2025-10-03 18h35.48.043927 +0530
50,c,114,2,28,c,1,0.0183226,None,28,2,114,2,,,,,272.4366693,,272.4241511,272.4366693,273.4365373,273.4365373,273.4365373,273.4365373,273.4365373,274.4367165,274.4367165,274.4588724,c,1,0.0183226,None,,,,,4,1,2025-10-03_18h35.42.544,Motor Sequence,,2025.1.1,59.64675995,2025-10-03 18h35.48.043927 +0530
-150,z,115,3,28,x,0,0.3079597,None,28,3,115,3,,,,,274.4700345,,274.459205,274.4700345,275.4698983,275.4698983,275.4698983,275.4698983,275.4698983,276.4703797,276.4703797,276.7903496,x,0,0.3079597,None,,,,,4,1,2025-10-03_18h35.42.544,Motor Sequence,,2025.1.1,59.64675995,2025-10-03 18h35.48.043927 +0530
-50,x,116,0,29,v,0,0.2805803,None,29,0,116,0,,,,,276.8033354,,276.7906624,276.8033354,277.8029649,277.8029649,277.8029649,277.8029649,277.8029649,278.8035216,278.8035216,279.0912509,v,0,0.2805803,None,,,,,4,1,2025-10-03_18h35.42.544,Motor Sequence,,2025.1.1,59.64675995,2025-10-03 18h35.48.043927 +0530
150,v,117,1,29,z,0,0.2979538,None,29,1,117,1,,,,,279.1034515,,279.0915534,279.1034515,280.1030143,280.1030143,280.1030143,280.1030143,280.1030143,281.1028161,281.1028161,281.4104045,z,0,0.2979538,None,,,,,4,1,2025-10-03_18h35.42.544,Motor Sequence,,2025.1.1,59.64675995,2025-10-03 18h35.48.043927 +0530
50,c,118,2,29,c,1,0.3200126,None,29,2,118,2,,,,,281.4204819,,281.4107428,281.4204819,282.41934,282.41934,282.41934,282.41934,282.41934,283.4199247,283.4199247,283.7438214,c,1,0.3200126,None,,,,,4,1,2025-10-03_18h35.42.544,Motor Sequence,,2025.1.1,59.64675995,2025-10-03 18h35.48.043927 +0530
-150,z,119,3,29,x,0,0.2492967,None,29,3,119,3,,,,,283.7529036,,283.7441188,283.7529036,284.7535673,284.7535673,284.7535673,284.7535673,284.7535673,285.7528736,285.7528736,286.0079857,x,0,0.2492967,None,,,,,4,1,2025-10-03_18h35.42.544,Motor Sequence,,2025.1.1,59.64675995,2025-10-03 18h35.48.043927 +0530
-50,x,120,0,30,v,0,0.272272,None,30,0,120,0,,,,,286.0203357,,286.008343,286.0203357,287.0198035,287.0198035,287.0198035,287.0198035,287.0198035,288.0196467,288.0196467,288.3074129,v,0,0.272272,None,,,,,4,1,2025-10-03_18h35.42.544,Motor Sequence,,2025.1.1,59.64675995,2025-10-03 18h35.48.043927 +0530
150,v,121,1,30,z,0,0.5062462,None,30,1,121,1,,,,,288.3205941,,288.3077225,288.3205941,289.3200117,289.3200117,289.3200117,289.3200117,289.3200117,290.3191733,290.3191733,290.840448,z,0,0.5062462,None,,,,,4,1,2025-10-03_18h35.42.544,Motor Sequence,,2025.1.1,59.64675995,2025-10-03 18h35.48.043927 +0530
50,c,122,2,30,c,1,0.2927506,None,30,2,122,2,,,,,290.853499,,290.8409198,290.853499,291.8533568,291.8533568,291.8533568,291.8533568,291.8533568,292.8533055,292.8533055,293.1581164,c,1,0.2927506,None,,,,,4,1,2025-10-03_18h35.42.544,Motor Sequence,,2025.1.1,59.64675995,2025-10-03 18h35.48.043927 +0530
-150,z,123,3,30,x,0,0.1774908,None,30,3,123,3,,,,,293.1692112,,293.1583943,293.1692112,294.1691513,294.1691513,294.1691513,294.1691513,294.1691513,295.1693164,295.1693164,295.3574302,x,0,0.1774908,None,,,,,4,1,2025-10-03_18h35.42.544,Motor Sequence,,2025.1.1,59.64675995,2025-10-03 18h35.48.043927 +0530
-50,x,124,0,31,v,0,0.2772679,None,31,0,124,0,,,,,295.3698991,,295.3577585,295.3698991,296.3694692,296.3694692,296.3694692,296.3694692,296.3694692,297.3699285,297.3699285,297.6568324,v,0,0.2772679,None,,,,,4,1,2025-10-03_18h35.42.544,Motor Sequence,,2025.1.1,59.64675995,2025-10-03 18h35.48.043927 +0530
150,v,125,1,31,z,0,0.3595242,None,31,1,125,1,,,,,297.6703935,,297.6571528,297.6703935,298.6695938,298.6695938,298.6695938,298.6695938,298.6695938,299.66992,299.66992,300.0395372,z,0,0.3595242,None,,,,,4,1,2025-10-03_18h35.42.544,Motor Sequence,,2025.1.1,59.64675995,2025-10-03 18h35.48.043927 +0530
50,c,126,2,31,c,1,0.247478,None,31,2,126,2,,,,,300.0525098,,300.0398402,300.0525098,301.0524315,301.0524315,301.0524315,301.0524315,301.0524315,302.0527077,302.0527077,302.3083642,c,1,0.247478,None,,,,,4,1,2025-10-03_18h35.42.544,Motor Sequence,,2025.1.1,59.64675995,2025-10-03 18h35.48.043927 +0530
-150,z,127,3,31,x,0,0.1347578,None,31,3,127,3,,,,,302.3201255,,302.3086894,302.3201255,303.3201634,303.3201634,303.3201634,303.3201634,303.3201634,304.320156,304.320156,304.458286,x,0,0.1347578,None,,,,,4,1,2025-10-03_18h35.42.544,Motor Sequence,,2025.1.1,59.64675995,2025-10-03 18h35.48.043927 +0530
-50,x,128,0,32,v,0,0.2592914,None,32,0,128,0,,,,,304.4698386,,304.4586913,304.4698386,305.469582,305.469582,305.469582,305.469582,305.469582,306.4695658,306.4695658,306.7383596,v,0,0.2592914,None,,,,,4,1,2025-10-03_18h35.42.544,Motor Sequence,,2025.1.1,59.64675995,2025-10-03 18h35.48.043927 +0530
150,v,129,1,32,z,0,0.3489555,None,32,1,129,1,,,,,306.753558,,306.7386168,306.753558,307.7370064,307.7370064,307.7370064,307.7370064,307.7528962,308.7532167,308.7532167,309.1080787,z,0,0.3489555,None,,,,,4,1,2025-10-03_18h35.42.544,Motor Sequence,,2025.1.1,59.64675995,2025-10-03 18h35.48.043927 +0530
50,c,130,2,32,c,1,0.2959255,None,32,2,130,2,,,,,309.1199697,,309.1084329,309.1199697,310.1209453,310.1209453,310.1209453,310.1209453,310.1209453,311.1197604,311.1197604,311.4212939,c,1,0.2959255,None,,,,,4,1,2025-10-03_18h35.42.544,Motor Sequence,,2025.1.1,59.64675995,2025-10-03 18h35.48.043927 +0530
-150,z,131,3,32,x,0,0.2727757,None,32,3,131,3,,,,,311.4352898,,311.4215554,311.4352898,312.4351052,312.4351052,312.4351052,312.4351052,312.4351052,313.435961,313.435961,313.7222898,x,0,0.2727757,None,,,,,4,1,2025-10-03_18h35.42.544,Motor Sequence,,2025.1.1,59.64675995,2025-10-03 18h35.48.043927 +0530
-50,x,132,0,33,v,0,0.3679293,None,33,0,132,0,,,,,313.7361943,,313.7225671,313.7361943,314.7361736,314.7361736,314.7361736,314.7361736,314.7361736,315.735305,315.735305,316.1067833,v,0,0.3679293,None,,,,,4,1,2025-10-03_18h35.42.544,Motor Sequence,,2025.1.1,59.64675995,2025-10-03 18h35.48.043927 +0530
150,v,133,1,33,z,0,0.591122,None,33,1,133,1,,,,,316.119807,,316.1071014,316.119807,317.1195479,317.1195479,317.1195479,317.1195479,317.1195479,318.1196349,318.1196349,318.7224942,z,0,0.591122,None,,,,,4,1,2025-10-03_18h35.42.544,Motor Sequence,,2025.1.1,59.64675995,2025-10-03 18h35.48.043927 +0530
50,c,134,2,33,c,1,0.1254993,None,33,2,134,2,,,,,318.7364509,,318.7227875,318.7364509,319.7359874,319.7359874,319.7359874,319.7359874,319.7359874,320.735563,320.735563,320.8726002,c,1,0.1254993,None,,,,,4,1,2025-10-03_18h35.42.544,Motor Sequence,,2025.1.1,59.64675995,2025-10-03 18h35.48.043927 +0530
-150,z,135,3,33,x,0,0.1325629,None,33,3,135,3,,,,,320.886914,,320.872889,320.886914,321.8865266,321.8865266,321.8865266,321.8865266,321.8865266,322.8857566,322.8857566,323.0249836,x,0,0.1325629,None,,,,,4,1,2025-10-03_18h35.42.544,Motor Sequence,,2025.1.1,59.64675995,2025-10-03 18h35.48.043927 +0530
-50,x,136,0,34,v,0,0.2558935,None,34,0,136,0,,,,,323.0364052,,323.0253218,323.0364052,324.0369168,324.0369168,324.0369168,324.0369168,324.0369168,325.0362917,325.0362917,325.3053309,v,0,0.2558935,None,,,,,4,1,2025-10-03_18h35.42.544,Motor Sequence,,2025.1.1,59.64675995,2025-10-03 18h35.48.043927 +0530
150,v,137,1,34,z,0,0.2748871,None,34,1,137,1,,,,,325.3194238,,325.3056271,325.3194238,326.31896,326.31896,326.31896,326.31896,326.31896,327.3196353,327.3196353,327.6058693,z,0,0.2748871,None,,,,,4,1,2025-10-03_18h35.42.544,Motor Sequence,,2025.1.1,59.64675995,2025-10-03 18h35.48.043927 +0530
50,c,138,2,34,c,1,0.2691726,None,34,2,138,2,,,,,327.6193948,,327.6061553,327.6193948,328.6190493,328.6190493,328.6190493,328.6190493,328.6190493,329.6197563,329.6197563,329.8907724,c,1,0.2691726,None,,,,,4,1,2025-10-03_18h35.42.544,Motor Sequence,,2025.1.1,59.64675995,2025-10-03 18h35.48.043927 +0530
-150,z,139,3,34,x,0,0.2332329,None,34,3,139,3,,,,,329.9029937,,329.8911089,329.9029937,330.902521,330.902521,330.902521,330.902521,330.902521,331.9030814,331.9030814,332.1417903,x,0,0.2332329,None,,,,,4,1,2025-10-03_18h35.42.544,Motor Sequence,,2025.1.1,59.64675995,2025-10-03 18h35.48.043927 +0530
-50,x,140,0,35,v,0,0.2523851,None,35,0,140,0,,,,,332.1529882,,332.1421178,332.1529882,333.1527246,333.1527246,333.1527246,333.1527246,333.1527246,334.1533096,334.1533096,334.4220186,v,0,0.2523851,None,,,,,4,1,2025-10-03_18h35.42.544,Motor Sequence,,2025.1.1,59.64675995,2025-10-03 18h35.48.043927 +0530
150,v,141,1,35,z,0,0.0395306,None,35,1,141,1,,,,,334.4360143,,334.4222655,334.4360143,335.4356387,335.4356387,335.4356387,335.4356387,335.4356387,336.4357377,336.4357377,336.488806,z,0,0.0395306,None,,,,,4,1,2025-10-03_18h35.42.544,Motor Sequence,,2025.1.1,59.64675995,2025-10-03 18h35.48.043927 +0530
50,c,142,2,35,c,1,0.2844005,None,35,2,142,2,,,,,336.5038024,,336.4890815,336.5038024,337.5026433,337.5026433,337.5026433,337.5026433,337.5026433,338.5019965,338.5019965,338.7895425,c,1,0.2844005,None,,,,,4,1,2025-10-03_18h35.42.544,Motor Sequence,,2025.1.1,59.64675995,2025-10-03 18h35.48.043927 +0530
-150,z,143,3,35,x,0,0.1131964,None,35,3,143,3,,,,,338.8026893,,338.7898422,338.8026893,339.8027587,339.8027587,339.8027587,339.8027587,339.8027587,340.8032094,340.8032094,340.9220539,x,0,0.1131964,None,,,,,4,1,2025-10-03_18h35.42.544,Motor Sequence,,2025.1.1,59.64675995,2025-10-03 18h35.48.043927 +0530
-50,x,144,0,36,v,0,0.2961996,None,36,0,144,0,,,,,340.936064,,340.9223182,340.936064,341.9357018,341.9357018,341.9357018,341.9357018,341.9357018,342.9355787,342.9355787,343.2388983,v,0,0.2961996,None,,,,,4,1,2025-10-03_18h35.42.544,Motor Sequence,,2025.1.1,59.64675995,2025-10-03 18h35.48.043927 +0530
150,v,145,1,36,z,0,0.2701123,None,36,1,145,1,,,,,343.2528732,,343.2391988,343.2528732,344.2523164,344.2523164,344.2523164,344.2523164,344.2523164,345.2526447,345.2526447,345.5243635,z,0,0.2701123,None,,,,,4,1,2025-10-03_18h35.42.544,Motor Sequence,,2025.1.1,59.64675995,2025-10-03 18h35.48.043927 +0530
50,c,146,2,36,c,1,0.0856425,None,36,2,146,2,,,,,345.5358285,,345.5247027,345.5358285,346.5346024,346.5346024,346.5346024,346.5346024,346.5346024,347.5358489,347.5358489,347.6234429,c,1,0.0856425,None,,,,,4,1,2025-10-03_18h35.42.544,Motor Sequence,,2025.1.1,59.64675995,2025-10-03 18h35.48.043927 +0530
-150,z,147,3,36,x,0,0.0564163,None,36,3,147,3,,,,,347.6362772,,347.6237376,347.6362772,348.6365502,348.6365502,348.6365502,348.6365502,348.6365502,349.6357284,349.6357284,349.706578,x,0,0.0564163,None,,,,,4,1,2025-10-03_18h35.42.544,Motor Sequence,,2025.1.1,59.64675995,2025-10-03 18h35.48.043927 +0530
-50,x,148,0,37,v,0,0.4423343,None,37,0,148,0,,,,,349.7189561,,349.7068474,349.7189561,350.7190289,350.7190289,350.7190289,350.7190289,350.7190289,351.7194887,351.7194887,352.1729547,v,0,0.4423343,None,,,,,4,1,2025-10-03_18h35.42.544,Motor Sequence,,2025.1.1,59.64675995,2025-10-03 18h35.48.043927 +0530
150,v,149,1,37,z,0,0.3490051,None,37,1,149,1,,,,,352.1867773,,352.1732507,352.1867773,353.1691984,353.1691984,353.1691984,353.1691984,353.1871291,354.18599,354.18599,354.5406709,z,0,0.3490051,None,,,,,4,1,2025-10-03_18h35.42.544,Motor Sequence,,2025.1.1,59.64675995,2025-10-03 18h35.48.043927 +0530
50,c,150,2,37,c,1,0.3265145,None,37,2,150,2,,,,,354.5523446,,354.5409737,354.5523446,355.5526179,355.5526179,355.5526179,355.5526179,355.5526179,356.5522737,356.5522737,356.8887187,c,1,0.3265145,None,,,,,4,1,2025-10-03_18h35.42.544,Motor Sequence,,2025.1.1,59.64675995,2025-10-03 18h35.48.043927 +0530
-150,z,151,3,37,x,0,0.3718949,None,37,3,151,3,,,,,356.9028514,,356.8890628,356.9028514,357.9014726,357.9014726,357.9014726,357.9014726,357.9014726,358.9028474,358.9028474,359.2892891,x,0,0.3718949,None,,,,,4,1,2025-10-03_18h35.42.544,Motor Sequence,,2025.1.1,59.64675995,2025-10-03 18h35.48.043927 +0530
-50,x,152,0,38,v,0,0.1658873,None,38,0,152,0,,,,,359.3028714,,359.2896483,359.3028714,360.3024044,360.3024044,360.3024044,360.3024044,360.3024044,361.3023422,361.3023422,361.474216,v,0,0.1658873,None,,,,,4,1,2025-10-03_18h35.42.544,Motor Sequence,,2025.1.1,59.64675995,2025-10-03 18h35.48.043927 +0530
150,v,153,1,38,z,0,0.3524956,None,38,1,153,1,,,,,361.4858255,,361.4745717,361.4858255,362.4862585,362.4862585,362.4862585,362.4862585,362.4862585,363.4868377,363.4868377,363.8400124,z,0,0.3524956,None,,,,,4,1,2025-10-03_18h35.42.544,Motor Sequence,,2025.1.1,59.64675995,2025-10-03 18h35.48.043927 +0530
50,c,154,2,38,c,1,0.2813052,None,38,2,154,2,,,,,363.8526556,,363.8403092,363.8526556,364.853168,364.853168,364.853168,364.853168,364.853168,365.8520342,365.8520342,366.1404948,c,1,0.2813052,None,,,,,4,1,2025-10-03_18h35.42.544,Motor Sequence,,2025.1.1,59.64675995,2025-10-03 18h35.48.043927 +0530
-150,z,155,3,38,x,0,0.3587747,None,38,3,155,3,,,,,366.1528303,,366.1408039,366.1528303,367.1525285,367.1525285,367.1525285,367.1525285,367.1525285,368.1533674,368.1533674,368.5221105,x,0,0.3587747,None,,,,,4,1,2025-10-03_18h35.42.544,Motor Sequence,,2025.1.1,59.64675995,2025-10-03 18h35.48.043927 +0530
-50,x,156,0,39,v,0,0.2654337,None,39,0,156,0,,,,,368.5357818,,368.5224012,368.5357818,369.535463,369.535463,369.535463,369.535463,369.535463,370.5353281,370.5353281,370.8069747,v,0,0.2654337,None,,,,,4,1,2025-10-03_18h35.42.544,Motor Sequence,,2025.1.1,59.64675995,2025-10-03 18h35.48.043927 +0530
150,v,157,1,39,z,0,0.4824562,None,39,1,157,1,,,,,370.8198944,,370.8072885,370.8198944,371.81901,371.81901,371.81901,371.81901,371.81901,372.8185077,372.8185077,373.3068048,z,0,0.4824562,None,,,,,4,1,2025-10-03_18h35.42.544,Motor Sequence,,2025.1.1,59.64675995,2025-10-03 18h35.48.043927 +0530
50,c,158,2,39,c,1,0.2600906,None,39,2,158,2,,,,,373.3192108,,373.3072194,373.3192108,374.3186244,374.3186244,374.3186244,374.3186244,374.3186244,375.3195418,375.3195418,375.589981,c,1,0.2600906,None,,,,,4,1,2025-10-03_18h35.42.544,Motor Sequence,,2025.1.1,59.64675995,2025-10-03 18h35.48.043927 +0530
-150,z,159,3,39,x,0,0.2210848,None,39,3,159,3,,,,,375.6023984,,375.5903204,375.6023984,376.6023437,376.6023437,376.6023437,376.6023437,376.6023437,377.602325,377.602325,377.8412382,x,0,0.2210848,None,,,,,4,1,2025-10-03_18h35.42.544,Motor Sequence,,2025.1.1,59.64675995,2025-10-03 18h35.48.043927 +0530
-50,x,160,0,40,v,0,0.1671108,None,40,0,160,0,,,,,377.85236,,377.8415325,377.85236,378.8520988,378.8520988,378.8520988,378.8520988,378.8520988,379.8523853,379.8523853,380.0226509,v,0,0.1671108,None,,,,,4,1,2025-10-03_18h35.42.544,Motor Sequence,,2025.1.1,59.64675995,2025-10-03 18h35.48.043927 +0530
150,v,161,1,40,z,0,0.333386,None,40,1,161,1,,,,,380.0365833,,380.023059,380.0365833,381.036003,381.036003,381.036003,381.036003,381.036003,382.0350114,382.0350114,382.3736419,z,0,0.333386,None,,,,,4,1,2025-10-03_18h35.42.544,Motor Sequence,,2025.1.1,59.64675995,2025-10-03 18h35.48.043927 +0530
50,c,162,2,40,c,1,0.2321629,None,40,2,162,2,,,,,382.3857177,,382.373959,382.3857177,383.3856194,383.3856194,383.3856194,383.3856194,383.3856194,384.3856797,384.3856797,384.6245337,c,1,0.2321629,None,,,,,4,1,2025-10-03_18h35.42.544,Motor Sequence,,2025.1.1,59.64675995,2025-10-03 18h35.48.043927 +0530
-150,z,163,3,40,x,0,0.3053471,None,40,3,163,3,,,,,384.6357393,,384.6248841,384.6357393,385.635362,385.635362,385.635362,385.635362,385.635362,386.6363769,386.6363769,386.955006,x,0,0.3053471,None,,,,,4,1,2025-10-03_18h35.42.544,Motor Sequence,,2025.1.1,59.64675995,2025-10-03 18h35.48.043927 +0530
-50,x,164,0,41,v,0,0.2450694,None,41,0,164,0,,,,,386.9688958,,386.9552903,386.9688958,387.9688217,387.9688217,387.9688217,387.9688217,387.9688217,388.9681889,388.9681889,389.2215655,v,0,0.2450694,None,,,,,4,1,2025-10-03_18h35.42.544,Motor Sequence,,2025.1.1,59.64675995,2025-10-03 18h35.48.043927 +0530
150,v,165,1,41,z,0,0.5792868,None,41,1,165,1,,,,,389.2353394,,389.2218522,389.2353394,390.2352439,390.2352439,390.2352439,390.2352439,390.2352439,391.2351196,391.2351196,391.8225111,z,0,0.5792868,None,,,,,4,1,2025-10-03_18h35.42.544,Motor Sequence,,2025.1.1,59.64675995,2025-10-03 18h35.48.043927 +0530
50,c,166,2,41,c,1,0.3017948,None,41,2,166,2,,,,,391.8356037,,391.8228405,391.8356037,392.8354056,392.8354056,392.8354056,392.8354056,392.8354056,393.8354207,393.8354207,394.1398349,c,1,0.3017948,None,,,,,4,1,2025-10-03_18h35.42.544,Motor Sequence,,2025.1.1,59.64675995,2025-10-03 18h35.48.043927 +0530
-150,z,167,3,41,x,0,0.121582,None,41,3,167,3,,,,,394.1530992,,394.1401362,394.1530992,395.1519413,395.1519413,395.1519413,395.1519413,395.1519413,396.1527132,396.1527132,396.2885153,x,0,0.121582,None,,,,,4,1,2025-10-03_18h35.42.544,Motor Sequence,,2025.1.1,59.64675995,2025-10-03 18h35.48.043927 +0530
-50,x,168,0,42,v,0,0.0447737,None,42,0,168,0,,,,,396.3022248,,396.2888225,396.3022248,397.3017098,397.3017098,397.3017098,397.3017098,397.3017098,398.3013913,398.3013913,398.3552219,v,0,0.0447737,None,,,,,4,1,2025-10-03_18h35.42.544,Motor Sequence,,2025.1.1,59.64675995,2025-10-03 18h35.48.043927 +0530
150,v,169,1,42,z,0,0.2716753,None,42,1,169,1,,,,,398.3688666,,398.3555373,398.3688666,399.3683847,399.3683847,399.3683847,399.3683847,399.3683847,400.3685812,400.3685812,400.6559973,z,0,0.2716753,None,,,,,4,1,2025-10-03_18h35.42.544,Motor Sequence,,2025.1.1,59.64675995,2025-10-03 18h35.48.043927 +0530
50,c,170,2,42,c,1,0.0322903,None,42,2,170,2,,,,,400.6693555,,400.656323,400.6693555,401.6697029,401.6697029,401.6697029,401.6697029,401.6697029,402.6685337,402.6685337,402.7063399,c,1,0.0322903,None,,,,,4,1,2025-10-03_18h35.42.544,Motor Sequence,,2025.1.1,59.64675995,2025-10-03 18h35.48.043927 +0530
-150,z,171,3,42,x,0,0.1898249,None,42,3,171,3,,,,,402.7187467,,402.7067939,402.7187467,403.7333051,403.7333051,403.7333051,403.7333051,403.7333051,404.7185283,404.7185283,404.9236088,x,0,0.1898249,None,,,,,4,1,2025-10-03_18h35.42.544,Motor Sequence,,2025.1.1,59.64675995,2025-10-03 18h35.48.043927 +0530
-50,x,172,0,43,v,0,0.1354432,None,43,0,172,0,,,,,404.9358259,,404.9239013,404.9358259,405.9352651,405.9352651,405.9352651,405.9352651,405.9352651,406.9352493,406.9352493,407.0736563,v,0,0.1354432,None,,,,,4,1,2025-10-03_18h35.42.544,Motor Sequence,,2025.1.1,59.64675995,2025-10-03 18h35.48.043927 +0530
150,v,173,1,43,z,0,0.093257,None,43,1,173,1,,,,,407.0854159,,407.0739797,407.0854159,408.0850217,408.0850217,408.0850217,408.0850217,408.0850217,409.0852967,409.0852967,409.1882222,z,0,0.093257,None,,,,,4,1,2025-10-03_18h35.42.544,Motor Sequence,,2025.1.1,59.64675995,2025-10-03 18h35.48.043927 +0530
50,c,174,2,43,c,1,0.3317694,None,43,2,174,2,,,,,409.2023097,,409.1886176,409.2023097,410.2019871,410.2019871,410.2019871,410.2019871,410.2019871,411.2019156,411.2019156,411.5392815,c,1,0.3317694,None,,,,,4,1,2025-10-03_18h35.42.544,Motor Sequence,,2025.1.1,59.64675995,2025-10-03 18h35.48.043927 +0530
-150,z,175,3,43,x,0,0.1014476,None,43,3,175,3,,,,,411.5513893,,411.539726,411.5513893,412.5520839,412.5520839,412.5520839,412.5520839,412.5520839,413.5518505,413.5518505,413.6559068,x,0,0.1014476,None,,,,,4,1,2025-10-03_18h35.42.544,Motor Sequence,,2025.1.1,59.64675995,2025-10-03 18h35.48.043927 +0530
-50,x,176,0,44,v,0,0.2495906,None,44,0,176,0,,,,,413.6687701,,413.6562624,413.6687701,414.6684787,414.6684787,414.6684787,414.6684787,414.6684787,415.6679129,415.6679129,415.9218955,v,0,0.2495906,None,,,,,4,1,2025-10-03_18h35.42.544,Motor Sequence,,2025.1.1,59.64675995,2025-10-03 18h35.48.043927 +0530
150,v,177,1,44,z,0,0.3766008,None,44,1,177,1,,,,,415.9352927,,415.922154,415.9352927,416.934893,416.934893,416.934893,416.934893,416.934893,417.9340095,417.9340095,418.3219088,z,0,0.3766008,None,,,,,4,1,2025-10-03_18h35.42.544,Motor Sequence,,2025.1.1,59.64675995,2025-10-03 18h35.48.043927 +0530
50,c,178,2,44,c,1,0.1850962,None,44,2,178,2,,,,,418.3351133,,418.3222183,418.3351133,419.3348345,419.3348345,419.3348345,419.3348345,419.3348345,420.3354201,420.3354201,420.5246253,c,1,0.1850962,None,,,,,4,1,2025-10-03_18h35.42.544,Motor Sequence,,2025.1.1,59.64675995,2025-10-03 18h35.48.043927 +0530
-150,z,179,3,44,x,0,0.2323788,None,44,3,179,3,,,,,420.5351092,,420.5249651,420.5351092,421.5357116,421.5357116,421.5357116,421.5357116,421.5357116,422.5344368,422.5344368,422.7726165,x,0,0.2323788,None,,,,,4,1,2025-10-03_18h35.42.544,Motor Sequence,,2025.1.1,59.64675995,2025-10-03 18h35.48.043927 +0530
-50,x,180,0,45,v,0,0.0887885,None,45,0,180,0,,,,,422.7846012,,422.7729462,422.7846012,423.7854381,423.7854381,423.7854381,423.7854381,423.7854381,424.7852881,424.7852881,424.8886526,v,0,0.0887885,None,,,,,4,1,2025-10-03_18h35.42.544,Motor Sequence,,2025.1.1,59.64675995,2025-10-03 18h35.48.043927 +0530
150,v,181,1,45,z,0,0.2348345,None,45,1,181,1,,,,,424.901976,,424.8889857,424.901976,425.9013629,425.9013629,425.9013629,425.9013629,425.9013629,426.9013894,426.9013894,427.1395737,z,0,0.2348345,None,,,,,4,1,2025-10-03_18h35.42.544,Motor Sequence,,2025.1.1,59.64675995,2025-10-03 18h35.48.043927 +0530
50,c,182,2,45,c,1,0.3444084,None,45,2,182,2,,,,,427.153178,,427.1398787,427.153178,428.1528541,428.1528541,428.1528541,428.1528541,428.1678826,429.1519962,429.1519962,429.5049518,c,1,0.3444084,None,,,,,4,1,2025-10-03_18h35.42.544,Motor Sequence,,2025.1.1,59.64675995,2025-10-03 18h35.48.043927 +0530
-150,z,183,3,45,x,0,0.2750962,None,45,3,183,3,,,,,429.5185949,,429.5052596,429.5185949,430.5179583,430.5179583,430.5179583,430.5179583,430.5179583,431.5187059,431.5187059,431.8053547,x,0,0.2750962,None,,,,,4,1,2025-10-03_18h35.42.544,Motor Sequence,,2025.1.1,59.64675995,2025-10-03 18h35.48.043927 +0530
-50,x,184,0,46,v,0,0.2801006,None,46,0,184,0,,,,,431.8197228,,431.8056463,431.8197228,432.8183944,432.8183944,432.8183944,432.8183944,432.8351292,433.8184598,433.8184598,434.1047244,v,0,0.2801006,None,,,,,4,1,2025-10-03_18h35.42.544,Motor Sequence,,2025.1.1,59.64675995,2025-10-03 18h35.48.043927 +0530
150,v,185,1,46,z,0,0.2822052,None,46,1,185,1,,,,,434.1185181,,434.1050723,434.1185181,435.117397,435.117397,435.117397,435.117397,435.117397,436.118366,436.118366,436.4059072,z,0,0.2822052,None,,,,,4,1,2025-10-03_18h35.42.544,Motor Sequence,,2025.1.1,59.64675995,2025-10-03 18h35.48.043927 +0530
50,c,186,2,46,c,1,0.305718,None,46,2,186,2,,,,,436.4185155,,436.4062337,436.4185155,437.4175191,437.4175191,437.4175191,437.4175191,437.4175191,438.4192768,438.4192768,438.7369208,c,1,0.305718,None,,,,,4,1,2025-10-03_18h35.42.544,Motor Sequence,,2025.1.1,59.64675995,2025-10-03 18h35.48.043927 +0530
-150,z,187,3,46,x,0,0.0493374,None,46,3,187,3,,,,,438.7514669,,438.7371694,438.7514669,439.7509962,439.7509962,439.7509962,439.7509962,439.7509962,440.7513975,440.7513975,440.8059801,x,0,0.0493374,None,,,,,4,1,2025-10-03_18h35.42.544,Motor Sequence,,2025.1.1,59.64675995,2025-10-03 18h35.48.043927 +0530
-50,x,188,0,47,v,0,0.0849311,None,47,0,188,0,,,,,440.8187603,,440.8062721,440.8187603,441.8181928,441.8181928,441.8181928,441.8181928,441.8181928,442.8172928,442.8172928,442.905797,v,0,0.0849311,None,,,,,4,1,2025-10-03_18h35.42.544,Motor Sequence,,2025.1.1,59.64675995,2025-10-03 18h35.48.043927 +0530
150,v,189,1,47,z,0,0.4074173,None,47,1,189,1,,,,,442.9186378,,442.9061066,442.9186378,443.9192628,443.9192628,443.9192628,443.9192628,443.9192628,444.9190176,444.9190176,445.3380271,z,0,0.4074173,None,,,,,4,1,2025-10-03_18h35.42.544,Motor Sequence,,2025.1.1,59.64675995,2025-10-03 18h35.48.043927 +0530
50,c,190,2,47,c,1,0.288315,None,47,2,190,2,,,,,445.3520977,,445.3383292,445.3520977,446.3515188,446.3515188,446.3515188,446.3515188,446.3515188,447.3515943,447.3515943,447.6549738,c,1,0.288315,None,,,,,4,1,2025-10-03_18h35.42.544,Motor Sequence,,2025.1.1,59.64675995,2025-10-03 18h35.48.043927 +0530
-150,z,191,3,47,x,0,0.3141928,None,47,3,191,3,,,,,447.6684919,,447.6553032,447.6684919,448.6676529,448.6676529,448.6676529,448.6676529,448.6676529,449.6680536,449.6680536,449.9898427,x,0,0.3141928,None,,,,,4,1,2025-10-03_18h35.42.544,Motor Sequence,,2025.1.1,59.64675995,2025-10-03 18h35.48.043927 +0530
-50,x,192,0,48,v,0,0.4990431,None,48,0,192,0,,,,,450.0020785,,449.9901699,450.0020785,451.0011563,451.0011563,451.0011563,451.0011563,451.0011563,452.0013278,452.0013278,452.5059498,v,0,0.4990431,None,,,,,4,1,2025-10-03_18h35.42.544,Motor Sequence,,2025.1.1,59.64675995,2025-10-03 18h35.48.043927 +0530
150,v,193,1,48,z,0,0.4206369,None,48,1,193,1,,,,,452.5174363,,452.5062765,452.5174363,453.5181524,453.5181524,453.5181524,453.5181524,453.5181524,454.5181044,454.5181044,454.9412324,z,0,0.4206369,None,,,,,4,1,2025-10-03_18h35.42.544,Motor Sequence,,2025.1.1,59.64675995,2025-10-03 18h35.48.043927 +0530
50,c,194,2,48,c,1,0.2560081,None,48,2,194,2,,,,,454.9511954,,454.9415396,454.9511954,455.9512934,455.9512934,455.9512934,455.9512934,455.9512934,456.9514151,456.9514151,457.2196068,c,1,0.2560081,None,,,,,4,1,2025-10-03_18h35.42.544,Motor Sequence,,2025.1.1,59.64675995,2025-10-03 18h35.48.043927 +0530
-150,z,195,3,48,x,0,0.1751842,None,48,3,195,3,,,,,457.2341162,,457.2198713,457.2341162,458.2191737,458.2191737,458.2191737,458.2191737,458.2343716,459.2341656,459.2341656,459.4211112,x,0,0.1751842,None,,,,,4,1,2025-10-03_18h35.42.544,Motor Sequence,,2025.1.1,59.64675995,2025-10-03 18h35.48.043927 +0530
-50,x,196,0,49,v,0,0.1221719,None,49,0,196,0,,,,,459.4349317,,459.4214,459.4349317,460.4347581,460.4347581,460.4347581,460.4347581,460.4347581,461.4345364,461.4345364,461.5725009,v,0,0.1221719,None,,,,,4,1,2025-10-03_18h35.42.544,Motor Sequence,,2025.1.1,59.64675995,2025-10-03 18h35.48.043927 +0530
150,v,197,1,49,z,0,0.3530187,None,49,1,197,1,,,,,461.5847527,,461.5728083,461.5847527,462.585028,462.585028,462.585028,462.585028,462.585028,463.5843567,463.5843567,463.9378713,z,0,0.3530187,None,,,,,4,1,2025-10-03_18h35.42.544,Motor Sequence,,2025.1.1,59.64675995,2025-10-03 18h35.48.043927 +0530
50,c,198,2,49,c,1,0.2927596,None,49,2,198,2,,,,,463.9513558,,463.9381266,463.9513558,464.9508782,464.9508782,464.9508782,464.9508782,464.9508782,465.9510982,465.9510982,466.2544459,c,1,0.2927596,None,,,,,4,1,2025-10-03_18h35.42.544,Motor Sequence,,2025.1.1,59.64675995,2025-10-03 18h35.48.043927 +0530
-150,z,199,3,49,x,0,0.1936542,None,49,3,199,3,,,,,466.2686974,,466.2547354,466.2686974,467.2684562,467.2684562,467.2684562,467.2684562,467.2684562,468.2681969,468.2681969,468.470786,x,0,0.1936542,None,,,,,4,1,2025-10-03_18h35.42.544,Motor Sequence,,2025.1.1,59.64675995,2025-10-03 18h35.48.043927 +0530
50,c,0,0,0,v,0,0.3066891,None,,,,,0,0,0,2,468.5000533,,468.4858493,468.5000533,469.4851623,469.4851623,469.4851623,469.4851623,469.5019914,470.4847109,470.4847109,470.8058701,,,,,v,0,0.3066891,None,4,1,2025-10-03_18h35.42.544,Motor Sequence,,2025.1.1,59.64675995,2025-10-03 18h35.48.043927 +0530
150,v,1,1,0,z,0,0.9624664,None,,,,,0,1,1,1,470.8174486,,470.8063262,470.8174486,471.8166201,471.8166201,471.8166201,471.8166201,471.8166201,472.8182246,472.8182246,473.7863269,,,,,z,0,0.9624664,None,4,1,2025-10-03_18h35.42.544,Motor Sequence,,2025.1.1,59.64675995,2025-10-03 18h35.48.043927 +0530
-150,z,2,2,0,z,1,0.5602444,None,,,,,0,2,2,3,473.8012717,,473.786586,473.8012717,474.8008239,474.8008239,474.8008239,474.8008239,474.8008239,475.7999061,475.7999061,476.3710738,,,,,z,1,0.5602444,None,4,1,2025-10-03_18h35.42.544,Motor Sequence,,2025.1.1,59.64675995,2025-10-03 18h35.48.043927 +0530
-50,x,3,3,0,v,0,0.8401747,None,,,,,0,3,3,0,476.384679,,476.3713833,476.384679,477.3841437,477.3841437,477.3841437,477.3841437,477.3841437,478.384482,478.384482,479.2379975,,,,,v,0,0.8401747,None,4,1,2025-10-03_18h35.42.544,Motor Sequence,,2025.1.1,59.64675995,2025-10-03 18h35.48.043927 +0530
150,v,4,0,1,z,0,1.2333261,None,,,,,1,0,4,1,479.2513847,,479.2383391,479.2513847,480.2508915,480.2508915,480.2508915,480.2508915,480.2508915,481.250575,481.250575,482.4883509,,,,,z,0,1.2333261,None,4,1,2025-10-03_18h35.42.544,Motor Sequence,,2025.1.1,59.64675995,2025-10-03 18h35.48.043927 +0530
50,c,5,1,1,c,1,0.9322871,None,,,,,1,1,5,2,482.5016346,,482.488686,482.5016346,483.5016487,483.5016487,483.5016487,483.5016487,483.5016487,484.5009871,484.5009871,485.4391921,,,,,c,1,0.9322871,None,4,1,2025-10-03_18h35.42.544,Motor Sequence,,2025.1.1,59.64675995,2025-10-03 18h35.48.043927 +0530
-50,x,6,2,1,v,0,0.7142823,None,,,,,1,2,6,0,485.4507669,,485.4395653,485.4507669,486.4509867,486.4509867,486.4509867,486.4509867,486.4509867,487.4522288,487.4522288,488.1712837,,,,,v,0,0.7142823,None,4,1,2025-10-03_18h35.42.544,Motor Sequence,,2025.1.1,59.64675995,2025-10-03 18h35.48.043927 +0530
-150,z,7,3,1,x,0,0.2678506,None,,,,,1,3,7,3,488.184509,,488.1715855,488.184509,489.184793,489.184793,489.184793,489.184793,489.184793,490.1848168,490.1848168,490.4554258,,,,,x,0,0.2678506,None,4,1,2025-10-03_18h35.42.544,Motor Sequence,,2025.1.1,59.64675995,2025-10-03 18h35.48.043927 +0530
150,v,8,0,2,c,0,0.2824448,None,,,,,2,0,8,1,490.4676112,,490.4557486,490.4676112,491.4680461,491.4680461,491.4680461,491.4680461,491.4680461,492.4671655,492.4671655,492.755089,,,,,c,0,0.2824448,None,4,1,2025-10-03_18h35.42.544,Motor Sequence,,2025.1.1,59.64675995,2025-10-03 18h35.48.043927 +0530
-150,z,9,1,2,c,0,0.4880434,None,,,,,2,1,9,3,492.7681002,,492.7554061,492.7681002,493.7679773,493.7679773,493.7679773,493.7679773,493.7679773,494.7682766,494.7682766,495.2711131,,,,,c,0,0.4880434,None,4,1,2025-10-03_18h35.42.544,Motor Sequence,,2025.1.1,59.64675995,2025-10-03 18h35.48.043927 +0530
50,c,10,2,2,c,1,0.4637274,None,,,,,2,2,10,2,495.2848664,,495.2714539,495.2848664,496.2841122,496.2841122,496.2841122,496.2841122,496.2841122,497.2842487,497.2842487,497.7548203,,,,,c,1,0.4637274,None,4,1,2025-10-03_18h35.42.544,Motor Sequence,,2025.1.1,59.64675995,2025-10-03 18h35.48.043927 +0530
-50,x,11,3,2,v,0,0.4024622,None,,,,,2,3,11,0,497.7683511,,497.7551819,497.7683511,498.7681672,498.7681672,498.7681672,498.7681672,498.7681672,499.767901,499.767901,500.1720973,,,,,v,0,0.4024622,None,4,1,2025-10-03_18h35.42.544,Motor Sequence,,2025.1.1,59.64675995,2025-10-03 18h35.48.043927 +0530
50,c,12,0,3,c,1,0.6526405,None,,,,,3,0,12,2,500.1846284,,500.1723941,500.1846284,501.1837972,501.1837972,501.1837972,501.1837972,501.1837972,502.1840275,502.1840275,502.8377771,,,,,c,1,0.6526405,None,4,1,2025-10-03_18h35.42.544,Motor Sequence,,2025.1.1,59.64675995,2025-10-03 18h35.48.043927 +0530
-50,x,13,1,3,v,0,0.6015271,None,,,,,3,1,13,0,502.8518977,,502.8380431,502.8518977,503.8506411,503.8506411,503.8506411,503.8506411,503.8506411,504.8512158,504.8512158,505.4555912,,,,,v,0,0.6015271,None,4,1,2025-10-03_18h35.42.544,Motor Sequence,,2025.1.1,59.64675995,2025-10-03 18h35.48.043927 +0530
150,v,14,2,3,z,0,0.3312883,None,,,,,3,2,14,1,505.4677727,,505.4559263,505.4677727,506.4673634,506.4673634,506.4673634,506.4673634,506.4673634,507.4673724,507.4673724,507.80335,,,,,z,0,0.3312883,None,4,1,2025-10-03_18h35.42.544,Motor Sequence,,2025.1.1,59.64675995,2025-10-03 18h35.48.043927 +0530
-150,z,15,3,3,z,1,0.6708395,None,,,,,3,3,15,3,507.8179381,,507.8036174,507.8179381,508.8180762,508.8180762,508.8180762,508.8180762,508.8180762,509.8172689,509.8172689,510.489359,,,,,z,1,0.6708395,None,4,1,2025-10-03_18h35.42.544,Motor Sequence,,2025.1.1,59.64675995,2025-10-03 18h35.48.043927 +0530
-50,x,16,0,4,v,0,0.5080141,None,,,,,4,0,16,0,510.5008411,,510.4896999,510.5008411,511.5006577,511.5006577,511.5006577,511.5006577,511.5006577,512.5004383,512.5004383,513.021871,,,,,v,0,0.5080141,None,4,1,2025-10-03_18h35.42.544,Motor Sequence,,2025.1.1,59.64675995,2025-10-03 18h35.48.043927 +0530
150,v,17,1,4,c,0,0.2637499,None,,,,,4,1,17,1,513.0345974,,513.0221951,513.0345974,514.0340187,514.0340187,514.0340187,514.0340187,514.0340187,515.0340394,515.0340394,515.3056185,,,,,c,0,0.2637499,None,4,1,2025-10-03_18h35.42.544,Motor Sequence,,2025.1.1,59.64675995,2025-10-03 18h35.48.043927 +0530
-150,z,18,2,4,v,0,0.4317215,None,,,,,4,2,18,3,515.3173995,,515.3060618,515.3173995,516.3183177,516.3183177,516.3183177,516.3183177,516.3183177,517.3182467,517.3182467,517.7570058,,,,,v,0,0.4317215,None,4,1,2025-10-03_18h35.42.544,Motor Sequence,,2025.1.1,59.64675995,2025-10-03 18h35.48.043927 +0530
50,c,19,3,4,x,0,0.6655894,None,,,,,4,3,19,2,517.7670817,,517.7572635,517.7670817,518.7672542,518.7672542,518.7672542,518.7672542,518.7672542,519.7673236,519.7673236,520.4381325,,,,,x,0,0.6655894,None,4,1,2025-10-03_18h35.42.544,Motor Sequence,,2025.1.1,59.64675995,2025-10-03 18h35.48.043927 +0530
50,c,20,0,5,c,1,0.9255625,None,,,,,5,0,20,2,520.4504721,,520.4384279,520.4504721,521.4506974,521.4506974,521.4506974,521.4506974,521.4506974,522.4507736,522.4507736,523.3876428,,,,,c,1,0.9255625,None,4,1,2025-10-03_18h35.42.544,Motor Sequence,,2025.1.1,59.64675995,2025-10-03 18h35.48.043927 +0530
-150,z,21,1,5,x,0,0.7983749,None,,,,,5,1,21,3,523.4011554,,523.3879413,523.4011554,524.4009171,524.4009171,524.4009171,524.4009171,524.4009171,525.4008418,525.4008418,526.2040722,,,,,x,0,0.7983749,None,4,1,2025-10-03_18h35.42.544,Motor Sequence,,2025.1.1,59.64675995,2025-10-03 18h35.48.043927 +0530
150,v,22,2,5,z,0,2.4936914,None,,,,,5,2,22,1,526.2175131,,526.2043472,526.2175131,527.2173211,527.2173211,527.2173211,527.2173211,527.2173211,528.2179289,528.2179289,530.720111,,,,,z,0,2.4936914,None,4,1,2025-10-03_18h35.42.544,Motor Sequence,,2025.1.1,59.64675995,2025-10-03 18h35.48.043927 +0530
-50,x,23,3,5,v,0,0.6279467,None,,,,,5,3,23,0,530.7333262,,530.7203955,530.7333262,531.7343534,531.7343534,531.7343534,531.7343534,531.7343534,532.7337169,532.7337169,533.3696272,,,,,v,0,0.6279467,None,4,1,2025-10-03_18h35.42.544,Motor Sequence,,2025.1.1,59.64675995,2025-10-03 18h35.48.043927 +0530
-150,z,24,0,6,x,0,0.7348706,None,,,,,6,0,24,3,533.384642,,533.3699019,533.384642,534.3834243,534.3834243,534.3834243,534.3834243,534.3834243,535.3836848,535.3836848,536.122597,,,,,x,0,0.7348706,None,4,1,2025-10-03_18h35.42.544,Motor Sequence,,2025.1.1,59.64675995,2025-10-03 18h35.48.043927 +0530
50,c,25,1,6,c,1,1.747354,None,,,,,6,1,25,2,536.1342529,,536.1229049,536.1342529,537.1334218,537.1334218,537.1334218,537.1334218,537.1334218,538.1334354,538.1334354,539.8884129,,,,,c,1,1.747354,None,4,1,2025-10-03_18h35.42.544,Motor Sequence,,2025.1.1,59.64675995,2025-10-03 18h35.48.043927 +0530
150,v,26,2,6,z,0,0.8767517,None,,,,,6,2,26,1,539.9004986,,539.888767,539.9004986,540.9004153,540.9004153,540.9004153,540.9004153,540.9004153,541.9004178,541.9004178,542.7876663,,,,,z,0,0.8767517,None,4,1,2025-10-03_18h35.42.544,Motor Sequence,,2025.1.1,59.64675995,2025-10-03 18h35.48.043927 +0530
-50,x,27,3,6,v,0,1.17232,None,,,,,6,3,27,0,542.8006547,,542.7879667,542.8006547,543.8005825,543.8005825,543.8005825,543.8005825,543.8005825,544.8000223,544.8000223,545.9841361,,,,,v,0,1.17232,None,4,1,2025-10-03_18h35.42.544,Motor Sequence,,2025.1.1,59.64675995,2025-10-03 18h35.48.043927 +0530
50,c,28,0,7,c,1,1.8171075,None,,,,,7,0,28,2,545.9996745,,545.9843501,545.9996745,546.9990734,546.9990734,546.9990734,546.9990734,546.9990734,547.9824922,547.9824922,549.8057877,,,,,c,1,1.8171075,None,4,1,2025-10-03_18h35.42.544,Motor Sequence,,2025.1.1,59.64675995,2025-10-03 18h35.48.043927 +0530
-150,z,29,1,7,x,0,0.6734991,None,,,,,7,1,29,3,549.817256,,549.8061323,549.817256,550.8165589,550.8165589,550.8165589,550.8165589,550.8165589,551.8170875,551.8170875,552.5032193,,,,,x,0,0.6734991,None,4,1,2025-10-03_18h35.42.544,Motor Sequence,,2025.1.1,59.64675995,2025-10-03 18h35.48.043927 +0530
-50,x,30,2,7,v,0,0.7144732,None,,,,,7,2,30,0,552.517534,,552.5035458,552.517534,553.5166143,553.5166143,553.5166143,553.5166143,553.5166143,554.5176032,554.5176032,555.238166,,,,,v,0,0.7144732,None,4,1,2025-10-03_18h35.42.544,Motor Sequence,,2025.1.1,59.64675995,2025-10-03 18h35.48.043927 +0530
150,v,31,3,7,z,0,3.2907622,None,,,,,7,3,31,1,555.2495094,,555.2386791,555.2495094,556.2504474,556.2504474,556.2504474,556.2504474,556.2504474,557.2485385,557.2485385,560.5534932,,,,,z,0,3.2907622,None,4,1,2025-10-03_18h35.42.544,Motor Sequence,,2025.1.1,59.64675995,2025-10-03 18h35.48.043927 +0530
-50,x,32,0,8,v,0,0.407231,None,,,,,8,0,32,0,560.5673922,,560.5538113,560.5673922,561.5663812,561.5663812,561.5663812,561.5663812,561.5829516,562.5664016,562.5664016,562.9883283,,,,,v,0,0.407231,None,4,1,2025-10-03_18h35.42.544,Motor Sequence,,2025.1.1,59.64675995,2025-10-03 18h35.48.043927 +0530
150,v,33,1,8,z,0,0.9124118,None,,,,,8,1,33,1,563.0015037,,562.9886694,563.0015037,563.9999484,563.9999484,563.9999484,563.9999484,563.9999484,564.9998959,564.9998959,565.9200852,,,,,z,0,0.9124118,None,4,1,2025-10-03_18h35.42.544,Motor Sequence,,2025.1.1,59.64675995,2025-10-03 18h35.48.043927 +0530
50,c,34,2,8,z,0,1.366547,None,,,,,8,2,34,2,565.9338031,,565.9205899,565.9338031,566.9330529,566.9330529,566.9330529,566.9330529,566.9330529,567.9328953,567.9328953,569.3043749,,,,,z,0,1.366547,None,4,1,2025-10-03_18h35.42.544,Motor Sequence,,2025.1.1,59.64675995,2025-10-03 18h35.48.043927 +0530
-150,z,35,3,8,x,0,1.3362033,None,,,,,8,3,35,3,569.316892,,569.3046488,569.316892,570.3170404,570.3170404,570.3170404,570.3170404,570.3170404,571.3168578,571.3168578,572.6552979,,,,,x,0,1.3362033,None,4,1,2025-10-03_18h35.42.544,Motor Sequence,,2025.1.1,59.64675995,2025-10-03 18h35.48.043927 +0530
150,v,36,0,9,c,0,1.2561048,None,,,,,9,0,36,1,572.6670451,,572.6556042,572.6670451,573.6666465,573.6666465,573.6666465,573.6666465,573.6666465,574.6666565,574.6666565,575.9359855,,,,,c,0,1.2561048,None,4,1,2025-10-03_18h35.42.544,Motor Sequence,,2025.1.1,59.64675995,2025-10-03 18h35.48.043927 +0530
-150,z,37,1,9,x,0,0.6316774,None,,,,,9,1,37,3,575.9504211,,575.9362593,575.9504211,576.9498009,576.9498009,576.9498009,576.9498009,576.9498009,577.9493935,577.9493935,578.5867801,,,,,x,0,0.6316774,None,4,1,2025-10-03_18h35.42.544,Motor Sequence,,2025.1.1,59.64675995,2025-10-03 18h35.48.043927 +0530
-50,x,38,2,9,v,0,0.3982866,None,,,,,9,2,38,0,578.6007187,,578.5870759,578.6007187,579.5998087,579.5998087,579.5998087,579.5998087,579.5998087,580.6004056,580.6004056,581.0045987,,,,,v,0,0.3982866,None,4,1,2025-10-03_18h35.42.544,Motor Sequence,,2025.1.1,59.64675995,2025-10-03 18h35.48.043927 +0530
50,c,39,3,9,c,1,1.1683529,None,,,,,9,3,39,2,581.0172216,,581.0049097,581.0172216,582.0157756,582.0157756,582.0157756,582.0157756,582.0332691,583.0173915,583.0173915,584.1887414,,,,,c,1,1.1683529,None,4,1,2025-10-03_18h35.42.544,Motor Sequence,,2025.1.1,59.64675995,2025-10-03 18h35.48.043927 +0530
150,v,40,0,10,z,0,0.3425512,None,,,,,10,0,40,1,584.200163,,584.1890868,584.200163,585.1998884,585.1998884,585.1998884,585.1998884,585.1998884,586.1998604,586.1998604,586.5544473,,,,,z,0,0.3425512,None,4,1,2025-10-03_18h35.42.544,Motor Sequence,,2025.1.1,59.64675995,2025-10-03 18h35.48.043927 +0530
-150,z,41,1,10,x,0,0.4723282,None,,,,,10,1,41,3,586.5664983,,586.5548166,586.5664983,587.5670058,587.5670058,587.5670058,587.5670058,587.5670058,588.5661567,588.5661567,589.0542811,,,,,x,0,0.4723282,None,4,1,2025-10-03_18h35.42.544,Motor Sequence,,2025.1.1,59.64675995,2025-10-03 18h35.48.043927 +0530
-50,x,42,2,10,v,0,0.477078,None,,,,,10,2,42,0,589.067825,,589.0546452,589.067825,590.0670159,590.0670159,590.0670159,590.0670159,590.0670159,591.0664125,591.0664125,591.5520085,,,,,v,0,0.477078,None,4,1,2025-10-03_18h35.42.544,Motor Sequence,,2025.1.1,59.64675995,2025-10-03 18h35.48.043927 +0530
50,c,43,3,10,c,1,0.839844,None,,,,,10,3,43,2,591.5660146,,591.5522875,591.5660146,592.566494,592.566494,592.566494,592.566494,592.566494,593.5660266,593.5660266,594.4195498,,,,,c,1,0.839844,None,4,1,2025-10-03_18h35.42.544,Motor Sequence,,2025.1.1,59.64675995,2025-10-03 18h35.48.043927 +0530
50,c,44,0,11,c,1,0.9925378,None,,,,,11,0,44,2,594.433183,,594.4198463,594.433183,595.4328213,595.4328213,595.4328213,595.4328213,595.4328213,596.4343923,596.4343923,597.4360131,,,,,c,1,0.9925378,None,4,1,2025-10-03_18h35.42.544,Motor Sequence,,2025.1.1,59.64675995,2025-10-03 18h35.48.043927 +0530
-50,x,45,1,11,v,0,0.7881524,None,,,,,11,1,45,0,597.4502455,,597.4363173,597.4502455,598.4486469,598.4486469,598.4486469,598.4486469,598.4486469,599.4503635,599.4503635,600.2528807,,,,,v,0,0.7881524,None,4,1,2025-10-03_18h35.42.544,Motor Sequence,,2025.1.1,59.64675995,2025-10-03 18h35.48.043927 +0530
150,v,46,2,11,z,0,0.7492953,None,,,,,11,2,46,1,600.2668951,,600.2531582,600.2668951,601.266299,601.266299,601.266299,601.266299,601.266299,602.2664004,602.2664004,603.0219428,,,,,z,0,0.7492953,None,4,1,2025-10-03_18h35.42.544,Motor Sequence,,2025.1.1,59.64675995,2025-10-03 18h35.48.043927 +0530
-150,z,47,3,11,x,0,1.1337052,None,,,,,11,3,47,3,603.0335314,,603.0223189,603.0335314,604.0335698,604.0335698,604.0335698,604.0335698,604.0335698,605.0333304,605.0333304,606.1694524,,,,,x,0,1.1337052,None,4,1,2025-10-03_18h35.42.544,Motor Sequence,,2025.1.1,59.64675995,2025-10-03 18h35.48.043927 +0530
150,v,48,0,12,z,0,0.9151881,None,,,,,12,0,48,1,606.1821894,,606.1696786,606.1821894,607.182207,607.182207,607.182207,607.182207,607.182207,608.1832594,608.1832594,609.1031576,,,,,z,0,0.9151881,None,4,1,2025-10-03_18h35.42.544,Motor Sequence,,2025.1.1,59.64675995,2025-10-03 18h35.48.043927 +0530
50,c,49,1,12,c,1,3.2858767,None,,,,,12,1,49,2,609.1176446,,609.1034335,609.1176446,610.1167643,610.1167643,610.1167643,610.1167643,610.1167643,611.1150482,611.1150482,614.404117,,,,,c,1,3.2858767,None,4,1,2025-10-03_18h35.42.544,Motor Sequence,,2025.1.1,59.64675995,2025-10-03 18h35.48.043927 +0530
-150,z,50,2,12,x,0,0.5750888,None,,,,,12,2,50,3,614.4165903,,614.404422,614.4165903,615.4165364,615.4165364,615.4165364,615.4165364,615.4165364,616.4166124,616.4166124,617.0025079,,,,,x,0,0.5750888,None,4,1,2025-10-03_18h35.42.544,Motor Sequence,,2025.1.1,59.64675995,2025-10-03 18h35.48.043927 +0530
-50,x,51,3,12,v,0,1.137478,None,,,,,12,3,51,0,617.0165865,,617.0027952,617.0165865,618.0159581,618.0159581,618.0159581,618.0159581,618.0159581,619.0162333,619.0162333,620.1555083,,,,,v,0,1.137478,None,4,1,2025-10-03_18h35.42.544,Motor Sequence,,2025.1.1,59.64675995,2025-10-03 18h35.48.043927 +0530
-50,x,52,0,13,v,0,0.637432,None,,,,,13,0,52,0,620.166317,,620.1558128,620.166317,621.1657337,621.1657337,621.1657337,621.1657337,621.1657337,622.1654135,622.1654135,622.8041431,,,,,v,0,0.637432,None,4,1,2025-10-03_18h35.42.544,Motor Sequence,,2025.1.1,59.64675995,2025-10-03 18h35.48.043927 +0530
150,v,53,1,13,z,0,1.3384273,None,,,,,13,1,53,1,622.8163707,,622.8044528,622.8163707,623.8158131,623.8158131,623.8158131,623.8158131,623.8158131,624.8163374,624.8163374,626.1552506,,,,,z,0,1.3384273,None,4,1,2025-10-03_18h35.42.544,Motor Sequence,,2025.1.1,59.64675995,2025-10-03 18h35.48.043927 +0530
-150,z,54,2,13,x,0,0.6114055,None,,,,,13,2,54,3,626.1660871,,626.1554976,626.1660871,627.1660242,627.1660242,627.1660242,627.1660242,627.1660242,628.1662965,628.1662965,628.785861,,,,,x,0,0.6114055,None,4,1,2025-10-03_18h35.42.544,Motor Sequence,,2025.1.1,59.64675995,2025-10-03 18h35.48.043927 +0530
50,c,55,3,13,c,1,2.1254319,None,,,,,13,3,55,2,628.7995402,,628.7863165,628.7995402,629.7992614,629.7992614,629.7992614,629.7992614,629.7992614,630.7994536,630.7994536,632.9352372,,,,,c,1,2.1254319,None,4,1,2025-10-03_18h35.42.544,Motor Sequence,,2025.1.1,59.64675995,2025-10-03 18h35.48.043927 +0530
-50,x,56,0,14,v,0,1.1550682,None,,,,,14,0,56,0,632.950269,,632.9355032,632.950269,633.9491007,633.9491007,633.9491007,633.9491007,633.9491007,634.9490446,634.9490446,636.1186852,,,,,v,0,1.1550682,None,4,1,2025-10-03_18h35.42.544,Motor Sequence,,2025.1.1,59.64675995,2025-10-03 18h35.48.043927 +0530
150,v,57,1,14,z,0,3.1124943,None,,,,,14,1,57,1,636.133075,,636.1189454,636.133075,637.1323989,637.1323989,637.1323989,637.1323989,637.1323989,638.1331687,638.1331687,641.2524648,,,,,z,0,3.1124943,None,4,1,2025-10-03_18h35.42.544,Motor Sequence,,2025.1.1,59.64675995,2025-10-03 18h35.48.043927 +0530
50,c,58,2,14,c,1,0.7668309,None,,,,,14,2,58,2,641.2667148,,641.252769,641.2667148,642.2659854,642.2659854,642.2659854,642.2659854,642.2659854,643.2662428,643.2662428,644.0375544,,,,,c,1,0.7668309,None,4,1,2025-10-03_18h35.42.544,Motor Sequence,,2025.1.1,59.64675995,2025-10-03 18h35.48.043927 +0530
-150,z,59,3,14,x,0,0.5335692,None,,,,,14,3,59,3,644.0503984,,644.0379433,644.0503984,645.0491411,645.0491411,645.0491411,645.0491411,645.0491411,646.0493514,646.0493514,646.5865328,,,,,x,0,0.5335692,None,4,1,2025-10-03_18h35.42.544,Motor Sequence,,2025.1.1,59.64675995,2025-10-03 18h35.48.043927 +0530
50,c,60,0,15,c,1,0.8212849,None,,,,,15,0,60,2,646.6001366,,646.5868467,646.6001366,647.5992797,647.5992797,647.5992797,647.5992797,647.5992797,648.5995812,648.5995812,649.4222735,,,,,c,1,0.8212849,None,4,1,2025-10-03_18h35.42.544,Motor Sequence,,2025.1.1,59.64675995,2025-10-03 18h35.48.043927 +0530
150,v,61,1,15,z,0,0.4159706,None,,,,,15,1,61,1,649.4324315,,649.4226051,649.4324315,650.4319483,650.4319483,650.4319483,650.4319483,650.4319483,651.4315635,651.4315635,651.8550062,,,,,z,0,0.4159706,None,4,1,2025-10-03_18h35.42.544,Motor Sequence,,2025.1.1,59.64675995,2025-10-03 18h35.48.043927 +0530
-50,x,62,2,15,v,0,0.5531508,None,,,,,15,2,62,0,651.865835,,651.8553351,651.865835,652.8660803,652.8660803,652.8660803,652.8660803,652.8660803,653.8672222,653.8672222,654.4360386,,,,,v,0,0.5531508,None,4,1,2025-10-03_18h35.42.544,Motor Sequence,,2025.1.1,59.64675995,2025-10-03 18h35.48.043927 +0530
-150,z,63,3,15,c,0,0.2959306,None,,,,,15,3,63,3,654.4497306,,654.4364198,654.4497306,655.4491835,655.4491835,655.4491835,655.4491835,655.4491835,656.4497568,656.4497568,656.7528213,,,,,c,0,0.2959306,None,4,1,2025-10-03_18h35.42.544,Motor Sequence,,2025.1.1,59.64675995,2025-10-03 18h35.48.043927 +0530
50,c,64,0,16,x,0,0.1359951,None,,,,,16,0,64,2,656.7667259,,656.753169,656.7667259,657.7650608,657.7650608,657.7650608,657.7650608,657.7650608,658.7652794,658.7652794,658.9034248,,,,,x,0,0.1359951,None,4,1,2025-10-03_18h35.42.544,Motor Sequence,,2025.1.1,59.64675995,2025-10-03 18h35.48.043927 +0530
-50,x,65,1,16,z,0,0.1183206,None,,,,,16,1,65,0,658.9156565,,658.9036845,658.9156565,659.9156962,659.9156962,659.9156962,659.9156962,659.9156962,660.9167031,660.9167031,661.0360983,,,,,z,0,0.1183206,None,4,1,2025-10-03_18h35.42.544,Motor Sequence,,2025.1.1,59.64675995,2025-10-03 18h35.48.043927 +0530
-150,z,66,2,16,z,1,0.5244467,None,,,,,16,2,66,3,661.0493929,,661.0364646,661.0493929,662.0493225,662.0493225,662.0493225,662.0493225,662.0493225,663.0489377,663.0489377,663.5858543,,,,,z,1,0.5244467,None,4,1,2025-10-03_18h35.42.544,Motor Sequence,,2025.1.1,59.64675995,2025-10-03 18h35.48.043927 +0530
150,v,67,3,16,z,0,0.8751818,None,,,,,16,3,67,1,663.5993626,,663.5861635,663.5993626,664.598755,664.598755,664.598755,664.598755,664.598755,665.5989272,665.5989272,666.4850022,,,,,z,0,0.8751818,None,4,1,2025-10-03_18h35.42.544,Motor Sequence,,2025.1.1,59.64675995,2025-10-03 18h35.48.043927 +0530
150,v,68,0,17,z,0,0.5730709,None,,,,,17,0,68,1,666.4990793,,666.4852868,666.4990793,667.4993827,667.4993827,667.4993827,667.4993827,667.4993827,668.4994538,668.4994538,669.0865491,,,,,z,0,0.5730709,None,4,1,2025-10-03_18h35.42.544,Motor Sequence,,2025.1.1,59.64675995,2025-10-03 18h35.48.043927 +0530
-150,z,69,1,17,v,0,0.4281651,None,,,,,17,1,69,3,669.0996999,,669.0868894,669.0996999,670.0993361,670.0993361,670.0993361,670.0993361,670.0993361,671.0989604,671.0989604,671.5352672,,,,,v,0,0.4281651,None,4,1,2025-10-03_18h35.42.544,Motor Sequence,,2025.1.1,59.64675995,2025-10-03 18h35.48.043927 +0530
-50,x,70,2,17,v,0,0.3264267,None,,,,,17,2,70,0,671.549833,,671.53555,671.549833,672.5493302,672.5493302,672.5493302,672.5493302,672.5493302,673.5495004,673.5495004,673.885646,,,,,v,0,0.3264267,None,4,1,2025-10-03_18h35.42.544,Motor Sequence,,2025.1.1,59.64675995,2025-10-03 18h35.48.043927 +0530
50,c,71,3,17,c,1,0.899833,None,,,,,17,3,71,2,673.9001411,,673.8859425,673.9001411,674.8991729,674.8991729,674.8991729,674.8991729,674.9152844,675.8993506,675.8993506,676.8037848,,,,,c,1,0.899833,None,4,1,2025-10-03_18h35.42.544,Motor Sequence,,2025.1.1,59.64675995,2025-10-03 18h35.48.043927 +0530
50,c,72,0,18,c,1,0.901345,None,,,,,18,0,72,2,676.8160106,,676.8041104,676.8160106,677.8152987,677.8152987,677.8152987,677.8152987,677.8152987,678.8159601,678.8159601,679.7200329,,,,,c,1,0.901345,None,4,1,2025-10-03_18h35.42.544,Motor Sequence,,2025.1.1,59.64675995,2025-10-03 18h35.48.043927 +0530
150,v,73,1,18,z,0,1.8308172,None,,,,,18,1,73,1,679.7319547,,679.7204283,679.7319547,680.7326226,680.7326226,680.7326226,680.7326226,680.7326226,681.7326775,681.7326775,683.5694152,,,,,z,0,1.8308172,None,4,1,2025-10-03_18h35.42.544,Motor Sequence,,2025.1.1,59.64675995,2025-10-03 18h35.48.043927 +0530
-150,z,74,2,18,x,0,0.541024,None,,,,,18,2,74,3,683.5821551,,683.5697208,683.5821551,684.5829685,684.5829685,684.5829685,684.5829685,684.5829685,685.5823736,685.5823736,686.1352761,,,,,x,0,0.541024,None,4,1,2025-10-03_18h35.42.544,Motor Sequence,,2025.1.1,59.64675995,2025-10-03 18h35.48.043927 +0530
-50,x,75,3,18,v,0,0.7263434,None,,,,,18,3,75,0,686.14916,,686.1355716,686.14916,687.1486619,687.1486619,687.1486619,687.1486619,687.1486619,688.1492263,688.1492263,688.8866872,,,,,v,0,0.7263434,None,4,1,2025-10-03_18h35.42.544,Motor Sequence,,2025.1.1,59.64675995,2025-10-03 18h35.48.043927 +0530
-50,x,76,0,19,z,0,0.2401972,None,,,,,19,0,76,0,688.8997147,,688.8869828,688.8997147,689.899121,689.899121,689.899121,689.899121,689.899121,690.8991865,690.8991865,691.1530394,,,,,z,0,0.2401972,None,4,1,2025-10-03_18h35.42.544,Motor Sequence,,2025.1.1,59.64675995,2025-10-03 18h35.48.043927 +0530
150,v,77,1,19,z,0,0.7976445,None,,,,,19,1,77,1,691.165696,,691.153323,691.165696,692.1652052,692.1652052,692.1652052,692.1652052,692.1652052,693.1650193,693.1650193,693.9693224,,,,,z,0,0.7976445,None,4,1,2025-10-03_18h35.42.544,Motor Sequence,,2025.1.1,59.64675995,2025-10-03 18h35.48.043927 +0530
-150,z,78,2,19,c,0,0.4184486,None,,,,,19,2,78,3,693.9823338,,693.9696581,693.9823338,694.9822104,694.9822104,694.9822104,694.9822104,694.9822104,695.9818599,695.9818599,696.4030633,,,,,c,0,0.4184486,None,4,1,2025-10-03_18h35.42.544,Motor Sequence,,2025.1.1,59.64675995,2025-10-03 18h35.48.043927 +0530
50,c,79,3,19,c,1,0.7634922,None,,,,,19,3,79,2,696.4156852,,696.4033707,696.4156852,697.4150645,697.4150645,697.4150645,697.4150645,697.4150645,698.4156283,698.4156283,699.1866228,,,,,c,1,0.7634922,None,4,1,2025-10-03_18h35.42.544,Motor Sequence,,2025.1.1,59.64675995,2025-10-03 18h35.48.043927 +0530
50,c,80,0,20,v,0,0.1615082,None,,,,,20,0,80,2,699.2001198,,699.1869871,699.2001198,700.1984676,700.1984676,700.1984676,700.1984676,700.1984676,701.1989678,701.1989678,701.3683276,,,,,v,0,0.1615082,None,4,1,2025-10-03_18h35.42.544,Motor Sequence,,2025.1.1,59.64675995,2025-10-03 18h35.48.043927 +0530
-150,z,81,1,20,x,0,0.2013837,None,,,,,20,1,81,3,701.382091,,701.3686325,701.382091,702.3816371,702.3816371,702.3816371,702.3816371,702.3816371,703.3816951,703.3816951,703.5866419,,,,,x,0,0.2013837,None,4,1,2025-10-03_18h35.42.544,Motor Sequence,,2025.1.1,59.64675995,2025-10-03 18h35.48.043927 +0530
-50,x,82,2,20,v,0,0.4385552,None,,,,,20,2,82,0,703.5989347,,703.5869877,703.5989347,704.5987203,704.5987203,704.5987203,704.5987203,704.5987203,705.5985763,705.5985763,706.0517247,,,,,v,0,0.4385552,None,4,1,2025-10-03_18h35.42.544,Motor Sequence,,2025.1.1,59.64675995,2025-10-03 18h35.48.043927 +0530
150,v,83,3,20,v,1,0.1806728,None,,,,,20,3,83,1,706.0660396,,706.0520206,706.0660396,707.0652074,707.0652074,707.0652074,707.0652074,707.0652074,708.0649111,708.0649111,708.2527551,,,,,v,1,0.1806728,None,4,1,2025-10-03_18h35.42.544,Motor Sequence,,2025.1.1,59.64675995,2025-10-03 18h35.48.043927 +0530
-150,z,84,0,21,c,0,0.0771732,None,,,,,21,0,84,3,708.265661,,708.253136,708.265661,709.2652777,709.2652777,709.2652777,709.2652777,709.2652777,710.265056,710.265056,710.3513274,,,,,c,0,0.0771732,None,4,1,2025-10-03_18h35.42.544,Motor Sequence,,2025.1.1,59.64675995,2025-10-03 18h35.48.043927 +0530
-50,x,85,1,21,x,1,0.2708686,None,,,,,21,1,85,0,710.367282,,710.351608,710.367282,711.3652862,711.3652862,711.3652862,711.3652862,711.3820513,712.3644616,712.3644616,712.6511566,,,,,x,1,0.2708686,None,4,1,2025-10-03_18h35.42.544,Motor Sequence,,2025.1.1,59.64675995,2025-10-03 18h35.48.043927 +0530
50,c,86,2,21,v,0,0.4086993,None,,,,,21,2,86,2,712.6658812,,712.6514174,712.6658812,713.6653584,713.6653584,713.6653584,713.6653584,713.6653584,714.665354,714.665354,715.0858822,,,,,v,0,0.4086993,None,4,1,2025-10-03_18h35.42.544,Motor Sequence,,2025.1.1,59.64675995,2025-10-03 18h35.48.043927 +0530
150,v,87,3,21,z,0,0.480709,None,,,,,21,3,87,1,715.0984565,,715.0861836,715.0984565,716.0982951,716.0982951,716.0982951,716.0982951,716.0982951,717.0987178,717.0987178,717.5857218,,,,,z,0,0.480709,None,4,1,2025-10-03_18h35.42.544,Motor Sequence,,2025.1.1,59.64675995,2025-10-03 18h35.48.043927 +0530
50,c,88,0,22,c,1,0.9819185,None,,,,,22,0,88,2,717.5986187,,717.5860522,717.5986187,718.5991829,718.5991829,718.5991829,718.5991829,718.5991829,719.5986499,719.5986499,720.5859316,,,,,c,1,0.9819185,None,4,1,2025-10-03_18h35.42.544,Motor Sequence,,2025.1.1,59.64675995,2025-10-03 18h35.48.043927 +0530
-150,z,89,1,22,x,0,0.4941391,None,,,,,22,1,89,3,720.5987786,,720.5862398,720.5987786,721.5986241,721.5986241,721.5986241,721.5986241,721.5986241,722.5991143,722.5991143,723.101772,,,,,x,0,0.4941391,None,4,1,2025-10-03_18h35.42.544,Motor Sequence,,2025.1.1,59.64675995,2025-10-03 18h35.48.043927 +0530
150,v,90,2,22,z,0,0.7323929,None,,,,,22,2,90,1,723.1157162,,723.1020709,723.1157162,724.1149441,724.1149441,724.1149441,724.1149441,724.1149441,725.1149222,725.1149222,725.8528943,,,,,z,0,0.7323929,None,4,1,2025-10-03_18h35.42.544,Motor Sequence,,2025.1.1,59.64675995,2025-10-03 18h35.48.043927 +0530
-50,x,91,3,22,v,0,0.6506454,None,,,,,22,3,91,0,725.8655418,,725.8532297,725.8655418,726.8649689,726.8649689,726.8649689,726.8649689,726.8649689,727.865264,727.865264,728.5201293,,,,,v,0,0.6506454,None,4,1,2025-10-03_18h35.42.544,Motor Sequence,,2025.1.1,59.64675995,2025-10-03 18h35.48.043927 +0530
-50,x,92,0,23,v,0,0.5710386,None,,,,,23,0,92,0,728.5313837,,728.5205304,728.5313837,729.5312543,729.5312543,729.5312543,729.5312543,729.5312543,730.532319,730.532319,731.1172643,,,,,v,0,0.5710386,None,4,1,2025-10-03_18h35.42.544,Motor Sequence,,2025.1.1,59.64675995,2025-10-03 18h35.48.043927 +0530
150,v,93,1,23,z,0,0.5598504,None,,,,,23,1,93,1,731.1319469,,731.1175059,731.1319469,732.1315268,732.1315268,732.1315268,732.1315268,732.1315268,733.1323214,733.1323214,733.7004745,,,,,z,0,0.5598504,None,4,1,2025-10-03_18h35.42.544,Motor Sequence,,2025.1.1,59.64675995,2025-10-03 18h35.48.043927 +0530
50,c,94,2,23,c,1,0.8109948,None,,,,,23,2,94,2,733.7150756,,733.7007465,733.7150756,734.7145663,734.7145663,734.7145663,734.7145663,734.7145663,735.7155553,735.7155553,736.5345462,,,,,c,1,0.8109948,None,4,1,2025-10-03_18h35.42.544,Motor Sequence,,2025.1.1,59.64675995,2025-10-03 18h35.48.043927 +0530
-150,z,95,3,23,x,0,0.5058351,None,,,,,23,3,95,3,736.5484937,,736.534844,736.5484937,737.5487843,737.5487843,737.5487843,737.5487843,737.5487843,738.5487323,738.5487323,739.0682885,,,,,x,0,0.5058351,None,4,1,2025-10-03_18h35.42.544,Motor Sequence,,2025.1.1,59.64675995,2025-10-03 18h35.48.043927 +0530
50,c,96,0,24,c,1,1.5821508,None,,,,,24,0,96,2,739.0820529,,739.0685816,739.0820529,740.0814754,740.0814754,740.0814754,740.0814754,740.0814754,741.0817451,741.0817451,742.6710648,,,,,c,1,1.5821508,None,4,1,2025-10-03_18h35.42.544,Motor Sequence,,2025.1.1,59.64675995,2025-10-03 18h35.48.043927 +0530
150,v,97,1,24,z,0,0.8046585,None,,,,,24,1,97,1,742.6806349,,742.6714691,742.6806349,743.6811196,743.6811196,743.6811196,743.6811196,743.6811196,744.6818998,744.6818998,745.5000865,,,,,z,0,0.8046585,None,4,1,2025-10-03_18h35.42.544,Motor Sequence,,2025.1.1,59.64675995,2025-10-03 18h35.48.043927 +0530
-50,x,98,2,24,v,0,0.3749838,None,,,,,24,2,98,0,745.5146868,,745.5002916,745.5146868,746.5154658,746.5154658,746.5154658,746.5154658,746.5154658,747.5150799,747.5150799,747.902228,,,,,v,0,0.3749838,None,4,1,2025-10-03_18h35.42.544,Motor Sequence,,2025.1.1,59.64675995,2025-10-03 18h35.48.043927 +0530
-150,z,99,3,24,x,0,0.300436,None,,,,,24,3,99,3,747.9152717,,747.9025366,747.9152717,748.915813,748.915813,748.915813,748.915813,748.915813,749.9154459,749.9154459,750.2193377,,,,,x,0,0.300436,None,4,1,2025-10-03_18h35.42.544,Motor Sequence,,2025.1.1,59.64675995,2025-10-03 18h35.48.043927 +0530
50,c,100,0,25,c,1,0.6654094,None,,,,,25,0,100,2,750.2318009,,750.219671,750.2318009,751.2315715,751.2315715,751.2315715,751.2315715,751.2315715,752.2314458,752.2314458,752.9037399,,,,,c,1,0.6654094,None,4,1,2025-10-03_18h35.42.544,Motor Sequence,,2025.1.1,59.64675995,2025-10-03 18h35.48.043927 +0530
-150,z,101,1,25,v,0,0.527126,None,,,,,25,1,101,3,752.9158285,,752.9040857,752.9158285,753.915218,753.915218,753.915218,753.915218,753.915218,754.9138899,754.9138899,755.4518421,,,,,v,0,0.527126,None,4,1,2025-10-03_18h35.42.544,Motor Sequence,,2025.1.1,59.64675995,2025-10-03 18h35.48.043927 +0530
-50,x,102,2,25,v,0,0.6212253,None,,,,,25,2,102,0,755.4653282,,755.4521192,755.4653282,756.4650811,756.4650811,756.4650811,756.4650811,756.4650811,757.4647143,757.4647143,758.1014678,,,,,v,0,0.6212253,None,4,1,2025-10-03_18h35.42.544,Motor Sequence,,2025.1.1,59.64675995,2025-10-03 18h35.48.043927 +0530
150,v,103,3,25,z,0,0.5520293,None,,,,,25,3,103,1,758.1153147,,758.1017792,758.1153147,759.1148666,759.1148666,759.1148666,759.1148666,759.1148666,760.1153876,760.1153876,760.6687062,,,,,z,0,0.5520293,None,4,1,2025-10-03_18h35.42.544,Motor Sequence,,2025.1.1,59.64675995,2025-10-03 18h35.48.043927 +0530
150,v,104,0,26,z,0,0.5909649,None,,,,,26,0,104,1,760.6817852,,760.6689873,760.6817852,761.681157,761.681157,761.681157,761.681157,761.681157,762.681565,762.681565,763.2844296,,,,,z,0,0.5909649,None,4,1,2025-10-03_18h35.42.544,Motor Sequence,,2025.1.1,59.64675995,2025-10-03 18h35.48.043927 +0530
-150,z,105,1,26,z,1,0.6093887,None,,,,,26,1,105,3,763.2980761,,763.2849287,763.2980761,764.2981485,764.2981485,764.2981485,764.2981485,764.2981485,765.2987273,765.2987273,765.9167364,,,,,z,1,0.6093887,None,4,1,2025-10-03_18h35.42.544,Motor Sequence,,2025.1.1,59.64675995,2025-10-03 18h35.48.043927 +0530
50,c,106,2,26,c,1,2.0802999,None,,,,,26,2,106,2,765.9324341,,765.9169818,765.9324341,766.9300531,766.9300531,766.9300531,766.9300531,766.9300531,767.9314166,767.9314166,770.0192267,,,,,c,1,2.0802999,None,4,1,2025-10-03_18h35.42.544,Motor Sequence,,2025.1.1,59.64675995,2025-10-03 18h35.48.043927 +0530
-50,x,107,3,26,v,0,2.2240728,None,,,,,26,3,107,0,770.0318511,,770.0195422,770.0318511,771.0312802,771.0312802,771.0312802,771.0312802,771.0312802,772.0317589,772.0317589,774.2663998,,,,,v,0,2.2240728,None,4,1,2025-10-03_18h35.42.544,Motor Sequence,,2025.1.1,59.64675995,2025-10-03 18h35.48.043927 +0530
-150,z,108,0,27,x,0,0.580106,None,,,,,27,0,108,3,774.2816848,,774.2666287,774.2816848,775.2810718,775.2810718,775.2810718,775.2810718,775.2810718,776.2808844,776.2808844,776.8685206,,,,,x,0,0.580106,None,4,1,2025-10-03_18h35.42.544,Motor Sequence,,2025.1.1,59.64675995,2025-10-03 18h35.48.043927 +0530
50,c,109,1,27,c,1,1.359294,None,,,,,27,1,109,2,776.8817781,,776.8688243,776.8817781,777.881549,777.881549,777.881549,777.881549,777.881549,778.88053,778.88053,780.2515065,,,,,c,1,1.359294,None,4,1,2025-10-03_18h35.42.544,Motor Sequence,,2025.1.1,59.64675995,2025-10-03 18h35.48.043927 +0530
150,v,110,2,27,z,0,0.4985738,None,,,,,27,2,110,1,780.2650032,,780.2518207,780.2650032,781.2644632,781.2644632,781.2644632,781.2644632,781.2644632,782.2646969,782.2646969,782.7687536,,,,,z,0,0.4985738,None,4,1,2025-10-03_18h35.42.544,Motor Sequence,,2025.1.1,59.64675995,2025-10-03 18h35.48.043927 +0530
-50,x,111,3,27,v,0,0.8952753,None,,,,,27,3,111,0,782.7816811,,782.7690837,782.7816811,783.7812465,783.7812465,783.7812465,783.7812465,783.7812465,784.7808163,784.7808163,785.6838705,,,,,v,0,0.8952753,None,4,1,2025-10-03_18h35.42.544,Motor Sequence,,2025.1.1,59.64675995,2025-10-03 18h35.48.043927 +0530
150,v,112,0,28,z,0,0.6105125,None,,,,,28,0,112,1,785.6977546,,785.6841525,785.6977546,786.6986297,786.6986297,786.6986297,786.6986297,786.6986297,787.6814007,787.6814007,788.3011999,,,,,z,0,0.6105125,None,4,1,2025-10-03_18h35.42.544,Motor Sequence,,2025.1.1,59.64675995,2025-10-03 18h35.48.043927 +0530
-50,x,113,1,28,v,0,0.8849974,None,,,,,28,1,113,0,788.3145826,,788.301512,788.3145826,789.3146844,789.3146844,789.3146844,789.3146844,789.3146844,790.3147695,790.3147695,791.2162629,,,,,v,0,0.8849974,None,4,1,2025-10-03_18h35.42.544,Motor Sequence,,2025.1.1,59.64675995,2025-10-03 18h35.48.043927 +0530
-150,z,114,2,28,x,0,0.8093042,None,,,,,28,2,114,3,791.2308957,,791.2164815,791.2308957,792.214824,792.214824,792.214824,792.214824,792.232006,793.2142857,793.2142857,794.0332553,,,,,x,0,0.8093042,None,4,1,2025-10-03_18h35.42.544,Motor Sequence,,2025.1.1,59.64675995,2025-10-03 18h35.48.043927 +0530
50,c,115,3,28,c,1,0.7041597,None,,,,,28,3,115,2,794.047629,,794.0335209,794.047629,795.0484832,795.0484832,795.0484832,795.0484832,795.0484832,796.0480632,796.0480632,796.7669157,,,,,c,1,0.7041597,None,4,1,2025-10-03_18h35.42.544,Motor Sequence,,2025.1.1,59.64675995,2025-10-03 18h35.48.043927 +0530
-50,x,116,0,29,v,0,0.7494955,None,,,,,29,0,116,0,796.7814839,,796.7671863,796.7814839,797.7808415,797.7808415,797.7808415,797.7808415,797.7808415,798.7810221,798.7810221,799.5367904,,,,,v,0,0.7494955,None,4,1,2025-10-03_18h35.42.544,Motor Sequence,,2025.1.1,59.64675995,2025-10-03 18h35.48.043927 +0530
150,v,117,1,29,c,0,0.5996961,None,,,,,29,1,117,1,799.5479182,,799.5371262,799.5479182,800.5474923,800.5474923,800.5474923,800.5474923,800.5474923,801.5477101,801.5477101,802.1546109,,,,,c,0,0.5996961,None,4,1,2025-10-03_18h35.42.544,Motor Sequence,,2025.1.1,59.64675995,2025-10-03 18h35.48.043927 +0530
50,c,118,2,29,c,1,0.3334828,None,,,,,29,2,118,2,802.1644448,,802.1549322,802.1644448,803.1640557,803.1640557,803.1640557,803.1640557,803.1640557,804.1640086,804.1640086,804.5027666,,,,,c,1,0.3334828,None,4,1,2025-10-03_18h35.42.544,Motor Sequence,,2025.1.1,59.64675995,2025-10-03 18h35.48.043927 +0530
-150,z,119,3,29,x,0,0.3817423,None,,,,,29,3,119,3,804.5145074,,804.5030842,804.5145074,805.5136801,805.5136801,805.5136801,805.5136801,805.5136801,806.5142438,806.5142438,806.9021245,,,,,x,0,0.3817423,None,4,1,2025-10-03_18h35.42.544,Motor Sequence,,2025.1.1,59.64675995,2025-10-03 18h35.48.043927 +0530
150,v,120,0,30,z,0,0.4665015,None,,,,,30,0,120,1,806.9144236,,806.9024667,806.9144236,807.9136119,807.9136119,807.9136119,807.9136119,807.9136119,808.9147306,808.9147306,809.3858733,,,,,z,0,0.4665015,None,4,1,2025-10-03_18h35.42.544,Motor Sequence,,2025.1.1,59.64675995,2025-10-03 18h35.48.043927 +0530
-150,z,121,1,30,x,0,0.5079982,None,,,,,30,1,121,3,809.3980928,,809.3861863,809.3980928,810.3976648,810.3976648,810.3976648,810.3976648,810.3976648,811.397429,811.397429,811.9178068,,,,,x,0,0.5079982,None,4,1,2025-10-03_18h35.42.544,Motor Sequence,,2025.1.1,59.64675995,2025-10-03 18h35.48.043927 +0530
50,c,122,2,30,x,0,0.5666251,None,,,,,30,2,122,2,811.930707,,811.9182069,811.930707,812.9305459,812.9305459,812.9305459,812.9305459,812.9305459,813.9305341,813.9305341,814.5031278,,,,,x,0,0.5666251,None,4,1,2025-10-03_18h35.42.544,Motor Sequence,,2025.1.1,59.64675995,2025-10-03 18h35.48.043927 +0530
-50,x,123,3,30,v,0,1.2990746,None,,,,,30,3,123,0,814.5139925,,814.5034929,814.5139925,815.5140288,815.5140288,815.5140288,815.5140288,815.5140288,816.5142588,816.5142588,817.8188771,,,,,v,0,1.2990746,None,4,1,2025-10-03_18h35.42.544,Motor Sequence,,2025.1.1,59.64675995,2025-10-03 18h35.48.043927 +0530
-50,x,124,0,31,v,0,0.5267202,None,,,,,31,0,124,0,817.8311335,,817.8192387,817.8311335,818.8307967,818.8307967,818.8307967,818.8307967,818.8307967,819.8309537,819.8309537,820.3692727,,,,,v,0,0.5267202,None,4,1,2025-10-03_18h35.42.544,Motor Sequence,,2025.1.1,59.64675995,2025-10-03 18h35.48.043927 +0530
150,v,125,1,31,x,0,0.521484,None,,,,,31,1,125,1,820.3810276,,820.3695553,820.3810276,821.3809668,821.3809668,821.3809668,821.3809668,821.3809668,822.3812051,822.3812051,822.9165229,,,,,x,0,0.521484,None,4,1,2025-10-03_18h35.42.544,Motor Sequence,,2025.1.1,59.64675995,2025-10-03 18h35.48.043927 +0530
-150,z,126,2,31,x,0,0.2506905,None,,,,,31,2,126,3,822.93085,,822.916807,822.93085,823.9303031,823.9303031,823.9303031,823.9303031,823.9303031,824.9306845,824.9306845,825.1868682,,,,,x,0,0.2506905,None,4,1,2025-10-03_18h35.42.544,Motor Sequence,,2025.1.1,59.64675995,2025-10-03 18h35.48.043927 +0530
50,c,127,3,31,c,1,0.4748365,None,,,,,31,3,127,2,825.1976756,,825.1872082,825.1976756,826.197443,826.197443,826.197443,826.197443,826.197443,827.1973393,827.1973393,827.6840152,,,,,c,1,0.4748365,None,4,1,2025-10-03_18h35.42.544,Motor Sequence,,2025.1.1,59.64675995,2025-10-03 18h35.48.043927 +0530
-50,x,128,0,32,z,0,1.894496,None,,,,,32,0,128,0,827.696982,,827.6843212,827.696982,828.6982142,828.6982142,828.6982142,828.6982142,828.6982142,829.6974989,829.6974989,831.5983836,,,,,z,0,1.894496,None,4,1,2025-10-03_18h35.42.544,Motor Sequence,,2025.1.1,59.64675995,2025-10-03 18h35.48.043927 +0530
-150,z,129,1,32,x,0,0.7859206,None,,,,,32,1,129,3,831.6137568,,831.5986036,831.6137568,832.5988549,832.5988549,832.5988549,832.5988549,832.6141064,833.6135786,833.6135786,834.4013856,,,,,x,0,0.7859206,None,4,1,2025-10-03_18h35.42.544,Motor Sequence,,2025.1.1,59.64675995,2025-10-03 18h35.48.043927 +0530
50,c,130,2,32,x,0,0.2144467,None,,,,,32,2,130,2,834.4144782,,834.4016709,834.4144782,835.4136443,835.4136443,835.4136443,835.4136443,835.4136443,836.4141029,836.4141029,836.6370513,,,,,x,0,0.2144467,None,4,1,2025-10-03_18h35.42.544,Motor Sequence,,2025.1.1,59.64675995,2025-10-03 18h35.48.043927 +0530
150,v,131,3,32,c,0,0.1589639,None,,,,,32,3,131,1,836.6477683,,836.6374005,836.6477683,837.6473008,837.6473008,837.6473008,837.6473008,837.6473008,838.6476997,838.6476997,838.8157154,,,,,c,0,0.1589639,None,4,1,2025-10-03_18h35.42.544,Motor Sequence,,2025.1.1,59.64675995,2025-10-03 18h35.48.043927 +0530
