thisN,thisTrialN,thisRepN,mouse.x,mouse.y,mouse.leftButton,mouse.midButton,mouse.rightButton,mouse.time,mouse.clicked_name,trials.thisRepN,trials.thisTrialN,trials.thisN,trials.thisIndex,thisRow.t,notes,num_distr,trial.started,fixation.started,target.started,mouse.started,trial.stopped,trials.mouse.x,trials.mouse.y,trials.mouse.leftButton,trials.mouse.midButton,trials.mouse.rightButton,trials.mouse.time,trials.mouse.clicked_name,participant,session,date,expName,expVersion,psychopyVersion,frameRate,expStart,
0,0,0,[np.float64(-0.20092592592592592)],[np.float64(-0.14907407407407408)],[1],[0],[0],[2.8584026000462472],['target'],0,0,0,0,0.02934310003183782,,10,0.02060139994136989,0.02934310003183782,0.02934310003183782,0.020621799863874912,2.8791048999410123,[np.float64(-0.20092592592592592)],[np.float64(-0.14907407407407408)],[1],[0],[0],[2.8584026000462472],['target'],4,001,2025-09-30_15h54.41.984,Visual Search,,2025.1.1,60.006792764778794,2025-09-30 15h54.51.931161 +0530,
1,0,1,[np.float64(0.0962962962962963)],[np.float64(-0.3296296296296296)],[1],[0],[0],[1.2160050000529736],['target'],1,0,1,0,2.9028221999760717,,10,2.8971049999818206,2.9028221999760717,2.9028221999760717,0.01776689989492297,4.113222399959341,[np.float64(0.0962962962962963)],[np.float64(-0.3296296296296296)],[1],[0],[0],[1.2160050000529736],['target'],4,001,2025-09-30_15h54.41.984,Visual Search,,2025.1.1,60.006792764778794,2025-09-30 15h54.51.931161 +0530,
2,0,2,[np.float64(-0.004629629629629629)],[np.float64(-0.125)],[1],[0],[0],[1.0229521000292152],['target'],2,0,2,0,4.126222599996254,,5,4.121910699876025,4.126222599996254,4.126222599996254,0.008500399999320507,5.144978200085461,[np.float64(-0.004629629629629629)],[np.float64(-0.125)],[1],[0],[0],[1.0229521000292152],['target'],4,001,2025-09-30_15h54.41.984,Visual Search,,2025.1.1,60.006792764778794,2025-09-30 15h54.51.931161 +0530,
3,0,3,[np.float64(0.41759259259259257)],[np.float64(-0.15925925925925927)],[1],[0],[0],[1.3177917001303285],['target'],3,0,3,0,5.163499400019646,,5,5.159160299925134,5.163499400019646,5.163499400019646,0.013993000146001577,6.477040400030091,[np.float64(0.41759259259259257)],[np.float64(-0.15925925925925927)],[1],[0],[0],[1.3177917001303285],['target'],4,001,2025-09-30_15h54.41.984,Visual Search,,2025.1.1,60.006792764778794,2025-09-30 15h54.51.931161 +0530,
4,0,4,[np.float64(-0.037037037037037035)],[np.float64(-0.34444444444444444)],[1],[0],[0],[1.3180154000874609],['target'],4,0,4,0,6.498185900039971,,10,6.492337000090629,6.498185900039971,6.498185900039971,0.015150199877098203,7.810406999895349,[np.float64(-0.037037037037037035)],[np.float64(-0.34444444444444444)],[1],[0],[0],[1.3180154000874609],['target'],4,001,2025-09-30_15h54.41.984,Visual Search,,2025.1.1,60.006792764778794,2025-09-30 15h54.51.931161 +0530,
5,0,5,[np.float64(-0.1648148148148148)],[np.float64(-0.4287037037037037)],[1],[0],[0],[1.201389400055632],['target'],5,0,5,0,7.831397600006312,,10,7.825369500089437,7.831397600006312,7.831397600006312,0.014864500146359205,9.02681909990497,[np.float64(-0.1648148148148148)],[np.float64(-0.4287037037037037)],[1],[0],[0],[1.201389400055632],['target'],4,001,2025-09-30_15h54.41.984,Visual Search,,2025.1.1,60.006792764778794,2025-09-30 15h54.51.931161 +0530,
6,0,6,[np.float64(-0.09537037037037037)],[np.float64(-0.2351851851851852)],[1],[0],[0],[1.0484482999891043],['target'],6,0,6,0,9.048941799905151,,10,9.043168199947104,9.048941799905151,9.048941799905151,0.01619570003822446,10.091698399977759,[np.float64(-0.09537037037037037)],[np.float64(-0.2351851851851852)],[1],[0],[0],[1.0484482999891043],['target'],4,001,2025-09-30_15h54.41.984,Visual Search,,2025.1.1,60.006792764778794,2025-09-30 15h54.51.931161 +0530,
7,0,7,[np.float64(0.024074074074074074)],[np.float64(0.22777777777777777)],[1],[0],[0],[1.0443287000525743],[None],7,0,7,0,10.107516699936241,,5,10.102810499956831,10.107516699936241,10.107516699936241,0.010934899793937802,11.147257399978116,[np.float64(0.024074074074074074)],[np.float64(0.22777777777777777)],[1],[0],[0],[1.0443287000525743],[None],4,001,2025-09-30_15h54.41.984,Visual Search,,2025.1.1,60.006792764778794,2025-09-30 15h54.51.931161 +0530,
8,0,8,[np.float64(0.47962962962962963)],[np.float64(-0.2601851851851852)],[1],[0],[0],[1.2380645000375807],[None],8,0,8,0,11.162868099985644,,5,11.157994600012898,11.162868099985644,11.162868099985644,0.010523299919441342,12.396155199967325,[np.float64(0.47962962962962963)],[np.float64(-0.2601851851851852)],[1],[0],[0],[1.2380645000375807],[None],4,001,2025-09-30_15h54.41.984,Visual Search,,2025.1.1,60.006792764778794,2025-09-30 15h54.51.931161 +0530,
9,0,9,[np.float64(0.08055555555555556)],[np.float64(0.030555555555555555)],[1],[0],[0],[1.1747202998958528],[None],9,0,9,0,12.409847100032493,,5,12.40524769993499,12.409847100032493,12.409847100032493,0.008924399968236685,13.58005589991808,[np.float64(0.08055555555555556)],[np.float64(0.030555555555555555)],[1],[0],[0],[1.1747202998958528],[None],4,001,2025-09-30_15h54.41.984,Visual Search,,2025.1.1,60.006792764778794,2025-09-30 15h54.51.931161 +0530,
10,0,10,[np.float64(0.2833333333333333)],[np.float64(-0.42407407407407405)],[1],[0],[0],[1.298254300141707],[None],10,0,10,0,13.602643700083718,,10,13.596769199939445,13.602643700083718,13.602643700083718,0.016560800140723586,14.89511079993099,[np.float64(0.2833333333333333)],[np.float64(-0.42407407407407405)],[1],[0],[0],[1.298254300141707],[None],4,001,2025-09-30_15h54.41.984,Visual Search,,2025.1.1,60.006792764778794,2025-09-30 15h54.51.931161 +0530,
11,0,11,[np.float64(-0.462037037037037)],[np.float64(0.09537037037037037)],[1],[0],[0],[2.054137900006026],['target'],11,0,11,0,14.909812799887732,,5,14.905830499948934,14.909812799887732,14.909812799887732,0.01053109997883439,16.960010499926284,[np.float64(-0.462037037037037)],[np.float64(0.09537037037037037)],[1],[0],[0],[2.054137900006026],['target'],4,001,2025-09-30_15h54.41.984,Visual Search,,2025.1.1,60.006792764778794,2025-09-30 15h54.51.931161 +0530,
12,0,12,[np.float64(-0.19722222222222222)],[np.float64(-0.27314814814814814)],[1],[0],[0],[1.220446800114587],[None],12,0,12,0,16.981188700068742,,10,16.974958200007677,16.981188700068742,16.981188700068742,0.014868899947032332,18.195503399940208,[np.float64(-0.19722222222222222)],[np.float64(-0.27314814814814814)],[1],[0],[0],[1.220446800114587],[None],4,001,2025-09-30_15h54.41.984,Visual Search,,2025.1.1,60.006792764778794,2025-09-30 15h54.51.931161 +0530,
13,0,13,[np.float64(0.47962962962962963)],[np.float64(0.10462962962962963)],[1],[0],[0],[1.215038500027731],[None],13,0,13,0,18.21726639987901,,10,18.211297899950296,18.21726639987901,18.21726639987901,0.015403800178319216,19.426500200061128,[np.float64(0.47962962962962963)],[np.float64(0.10462962962962963)],[1],[0],[0],[1.215038500027731],[None],4,001,2025-09-30_15h54.41.984,Visual Search,,2025.1.1,60.006792764778794,2025-09-30 15h54.51.931161 +0530,
14,0,14,[np.float64(-0.24537037037037038)],[np.float64(-0.22777777777777777)],[1],[0],[0],[1.2431105999276042],['target'],14,0,14,0,19.441018600016832,,5,19.437067599967122,19.441018600016832,19.441018600016832,0.010175300063565373,20.680278399959207,[np.float64(-0.24537037037037038)],[np.float64(-0.22777777777777777)],[1],[0],[0],[1.2431105999276042],['target'],4,001,2025-09-30_15h54.41.984,Visual Search,,2025.1.1,60.006792764778794,2025-09-30 15h54.51.931161 +0530,
15,0,15,[np.float64(-0.15555555555555556)],[np.float64(-0.26851851851851855)],[1],[0],[0],[1.0232857000082731],[None],15,0,15,0,20.694873800035566,,5,20.69044220005162,20.694873800035566,20.694873800035566,0.009995399974286556,21.71382820000872,[np.float64(-0.15555555555555556)],[np.float64(-0.26851851851851855)],[1],[0],[0],[1.0232857000082731],[None],4,001,2025-09-30_15h54.41.984,Visual Search,,2025.1.1,60.006792764778794,2025-09-30 15h54.51.931161 +0530,
16,0,16,[np.float64(0.2074074074074074)],[np.float64(0.44814814814814813)],[1],[0],[0],[1.463355600135401],[None],16,0,16,0,21.7358997000847,,10,21.729954399866983,21.7358997000847,21.7358997000847,0.015925399959087372,23.193394999951124,[np.float64(0.2074074074074074)],[np.float64(0.44814814814814813)],[1],[0],[0],[1.463355600135401],[None],4,001,2025-09-30_15h54.41.984,Visual Search,,2025.1.1,60.006792764778794,2025-09-30 15h54.51.931161 +0530,
17,0,17,[np.float64(-0.0787037037037037)],[np.float64(-0.387037037037037)],[1],[0],[0],[1.4732743001077324],[None],17,0,17,0,23.214076600037515,,10,23.208025299943984,23.214076600037515,23.214076600037515,0.014439400052651763,24.681414199993014,[np.float64(-0.0787037037037037)],[np.float64(-0.387037037037037)],[1],[0],[0],[1.4732743001077324],[None],4,001,2025-09-30_15h54.41.984,Visual Search,,2025.1.1,60.006792764778794,2025-09-30 15h54.51.931161 +0530,
18,0,18,[np.float64(0.25092592592592594)],[np.float64(0.10555555555555556)],[1],[0],[0],[1.2880213998723775],['target'],18,0,18,0,24.694793100003153,,5,24.69082250003703,24.694793100003153,24.694793100003153,0.009186000097543001,25.978948700008914,[np.float64(0.25092592592592594)],[np.float64(0.10555555555555556)],[1],[0],[0],[1.2880213998723775],['target'],4,001,2025-09-30_15h54.41.984,Visual Search,,2025.1.1,60.006792764778794,2025-09-30 15h54.51.931161 +0530,
19,0,19,[np.float64(-0.37592592592592594)],[np.float64(0.4703703703703704)],[1],[0],[0],[1.2424876999575645],['target'],19,0,19,0,25.992587500019,,5,25.988149999873713,25.992587500019,25.992587500019,0.009019600227475166,27.230766599997878,[np.float64(-0.37592592592592594)],[np.float64(0.4703703703703704)],[1],[0],[0],[1.2424876999575645],['target'],4,001,2025-09-30_15h54.41.984,Visual Search,,2025.1.1,60.006792764778794,2025-09-30 15h54.51.931161 +0530,
20,0,20,[np.float64(-0.36018518518518516)],[np.float64(-0.3287037037037037)],[1],[0],[0],[1.3865795000456274],['target'],20,0,20,0,27.246419199975207,,5,27.24230489996262,27.246419199975207,27.246419199975207,0.01131469989195466,28.62898140004836,[np.float64(-0.36018518518518516)],[np.float64(-0.3287037037037037)],[1],[0],[0],[1.3865795000456274],['target'],4,001,2025-09-30_15h54.41.984,Visual Search,,2025.1.1,60.006792764778794,2025-09-30 15h54.51.931161 +0530,
21,0,21,[np.float64(0.3055555555555556)],[np.float64(-0.05555555555555555)],[1],[0],[0],[1.0309037000406533],['target'],21,0,21,0,28.6514047998935,,10,28.645415799925104,28.6514047998935,28.6514047998935,0.01626499998383224,29.676367100095376,[np.float64(0.3055555555555556)],[np.float64(-0.05555555555555555)],[1],[0],[0],[1.0309037000406533],['target'],4,001,2025-09-30_15h54.41.984,Visual Search,,2025.1.1,60.006792764778794,2025-09-30 15h54.51.931161 +0530,
22,0,22,[np.float64(0.012037037037037037)],[np.float64(-0.42407407407407405)],[1],[0],[0],[1.0878938001114875],['target'],22,0,22,0,29.696868099970743,,10,29.691147699952126,29.696868099970743,29.696868099970743,0.014672899851575494,30.779150099959224,[np.float64(0.012037037037037037)],[np.float64(-0.42407407407407405)],[1],[0],[0],[1.0878938001114875],['target'],4,001,2025-09-30_15h54.41.984,Visual Search,,2025.1.1,60.006792764778794,2025-09-30 15h54.51.931161 +0530,
23,0,23,[np.float64(-0.026851851851851852)],[np.float64(0.4388888888888889)],[1],[0],[0],[1.142513900063932],['target'],23,0,23,0,30.792212500004098,,5,30.78784539992921,30.792212500004098,30.792212500004098,0.008515900000929832,31.930475499946624,[np.float64(-0.026851851851851852)],[np.float64(0.4388888888888889)],[1],[0],[0],[1.142513900063932],['target'],4,001,2025-09-30_15h54.41.984,Visual Search,,2025.1.1,60.006792764778794,2025-09-30 15h54.51.931161 +0530,
24,0,24,[np.float64(-0.023148148148148147)],[np.float64(0.0824074074074074)],[1],[0],[0],[0.9347596999723464],[None],24,0,24,0,31.947732100030407,,5,31.94334080000408,31.947732100030407,31.947732100030407,0.012653199955821037,32.87820899998769,[np.float64(-0.023148148148148147)],[np.float64(0.0824074074074074)],[1],[0],[0],[0.9347596999723464],[None],4,001,2025-09-30_15h54.41.984,Visual Search,,2025.1.1,60.006792764778794,2025-09-30 15h54.51.931161 +0530,
25,0,25,[np.float64(0.175)],[np.float64(0.2722222222222222)],[1],[0],[0],[1.1836163001134992],['target'],25,0,25,0,32.90226179989986,,10,32.89584099990316,32.90226179989986,32.90226179989986,0.017466200049966574,34.07958210003562,[np.float64(0.175)],[np.float64(0.2722222222222222)],[1],[0],[0],[1.1836163001134992],['target'],4,001,2025-09-30_15h54.41.984,Visual Search,,2025.1.1,60.006792764778794,2025-09-30 15h54.51.931161 +0530,
26,0,26,[np.float64(0.2574074074074074)],[np.float64(0.2962962962962963)],[1],[0],[0],[1.0137633001431823],['target'],26,0,26,0,34.10434389999136,,10,34.097508599981666,34.10434389999136,34.10434389999136,0.017659700009971857,35.11134409997612,[np.float64(0.2574074074074074)],[np.float64(0.2962962962962963)],[1],[0],[0],[1.0137633001431823],['target'],4,001,2025-09-30_15h54.41.984,Visual Search,,2025.1.1,60.006792764778794,2025-09-30 15h54.51.931161 +0530,
27,0,27,[np.float64(0.4777777777777778)],[np.float64(0.03333333333333333)],[1],[0],[0],[1.2046008999459445],[None],27,0,27,0,35.13122799992561,,10,35.125418700044975,35.13122799992561,35.13122799992561,0.01393010001629591,36.33015040005557,[np.float64(0.4777777777777778)],[np.float64(0.03333333333333333)],[1],[0],[0],[1.2046008999459445],[None],4,001,2025-09-30_15h54.41.984,Visual Search,,2025.1.1,60.006792764778794,2025-09-30 15h54.51.931161 +0530,
28,0,28,[np.float64(0.3351851851851852)],[np.float64(0.2564814814814815)],[1],[0],[0],[1.2557551998179406],['target'],28,0,28,0,36.34560179989785,,5,36.34143320005387,36.34560179989785,36.34560179989785,0.010976799996569753,37.59731710003689,[np.float64(0.3351851851851852)],[np.float64(0.2564814814814815)],[1],[0],[0],[1.2557551998179406],['target'],4,001,2025-09-30_15h54.41.984,Visual Search,,2025.1.1,60.006792764778794,2025-09-30 15h54.51.931161 +0530,
29,0,29,[np.float64(-0.16296296296296298)],[np.float64(-0.15833333333333333)],[1],[0],[0],[1.2636426000390202],[None],29,0,29,0,37.619902400067076,,10,37.614044500049204,37.619902400067076,37.619902400067076,0.01653040014207363,38.877802999923006,[np.float64(-0.16296296296296298)],[np.float64(-0.15833333333333333)],[1],[0],[0],[1.2636426000390202],[None],4,001,2025-09-30_15h54.41.984,Visual Search,,2025.1.1,60.006792764778794,2025-09-30 15h54.51.931161 +0530,
30,0,30,[np.float64(-0.22685185185185186)],[np.float64(0.16574074074074074)],[1],[0],[0],[1.1039334998931736],[None],30,0,30,0,38.898890499956906,,10,38.89306110003963,38.898890499956906,38.898890499956906,0.015057299984619021,39.99709119996987,[np.float64(-0.22685185185185186)],[np.float64(0.16574074074074074)],[1],[0],[0],[1.1039334998931736],[None],4,001,2025-09-30_15h54.41.984,Visual Search,,2025.1.1,60.006792764778794,2025-09-30 15h54.51.931161 +0530,
31,0,31,[np.float64(-0.25)],[np.float64(-0.15925925925925927)],[1],[0],[0],[1.1910267998464406],[None],31,0,31,0,40.010087199974805,,5,40.00601079990156,40.010087199974805,40.010087199974805,0.008725899970158935,41.19714169995859,[np.float64(-0.25)],[np.float64(-0.15925925925925927)],[1],[0],[0],[1.1910267998464406],[None],4,001,2025-09-30_15h54.41.984,Visual Search,,2025.1.1,60.006792764778794,2025-09-30 15h54.51.931161 +0530,
32,0,32,[np.float64(0.30648148148148147)],[np.float64(0.09351851851851851)],[1],[0],[0],[1.2040966001804918],['target'],32,0,32,0,41.21183219994418,,5,41.20737050008029,41.21183219994418,41.21183219994418,0.010068600066006184,42.411565399961546,[np.float64(0.30648148148148147)],[np.float64(0.09351851851851851)],[1],[0],[0],[1.2040966001804918],['target'],4,001,2025-09-30_15h54.41.984,Visual Search,,2025.1.1,60.006792764778794,2025-09-30 15h54.51.931161 +0530,
33,0,33,[np.float64(-0.49537037037037035)],[np.float64(0.09814814814814815)],[1],[0],[0],[1.2590462998487055],['target'],33,0,33,0,42.42565750004724,,5,42.421215899987146,42.42565750004724,42.42565750004724,0.009479000000283122,43.68036619992927,[np.float64(-0.49537037037037035)],[np.float64(0.09814814814814815)],[1],[0],[0],[1.2590462998487055],['target'],4,001,2025-09-30_15h54.41.984,Visual Search,,2025.1.1,60.006792764778794,2025-09-30 15h54.51.931161 +0530,
34,0,34,[np.float64(0.33240740740740743)],[np.float64(0.29259259259259257)],[1],[0],[0],[1.7169409999623895],['target'],34,0,34,0,43.701379999984056,,10,43.695493899984285,43.701379999984056,43.701379999984056,0.014925600029528141,45.41256000008434,[np.float64(0.33240740740740743)],[np.float64(0.29259259259259257)],[1],[0],[0],[1.7169409999623895],['target'],4,001,2025-09-30_15h54.41.984,Visual Search,,2025.1.1,60.006792764778794,2025-09-30 15h54.51.931161 +0530,
35,0,35,[np.float64(-0.3194444444444444)],[np.float64(0.07314814814814814)],[1],[0],[0],[1.200807600049302],['target'],35,0,35,0,45.428669600049034,,5,45.424350399989635,45.428669600049034,45.428669600049034,0.011523999972268939,46.62524969992228,[np.float64(-0.3194444444444444)],[np.float64(0.07314814814814814)],[1],[0],[0],[1.200807600049302],['target'],4,001,2025-09-30_15h54.41.984,Visual Search,,2025.1.1,60.006792764778794,2025-09-30 15h54.51.931161 +0530,
36,0,36,[np.float64(0.19537037037037036)],[np.float64(0.4537037037037037)],[1],[0],[0],[1.3819443001411855],[None],36,0,36,0,46.649807000067085,,10,46.64351429999806,46.649807000067085,46.649807000067085,0.018105899915099144,48.02560340007767,[np.float64(0.19537037037037036)],[np.float64(0.4537037037037037)],[1],[0],[0],[1.3819443001411855],[None],4,001,2025-09-30_15h54.41.984,Visual Search,,2025.1.1,60.006792764778794,2025-09-30 15h54.51.931161 +0530,
37,0,37,[np.float64(0.1675925925925926)],[np.float64(0.032407407407407406)],[1],[0],[0],[1.238144800066948],['target'],37,0,37,0,48.04159889998846,,5,48.03752540005371,48.04159889998846,48.04159889998846,0.011579799931496382,49.27586940000765,[np.float64(0.1675925925925926)],[np.float64(0.032407407407407406)],[1],[0],[0],[1.238144800066948],['target'],4,001,2025-09-30_15h54.41.984,Visual Search,,2025.1.1,60.006792764778794,2025-09-30 15h54.51.931161 +0530,
38,0,38,[np.float64(-0.4898148148148148)],[np.float64(-0.04537037037037037)],[1],[0],[0],[1.485144600039348],['target'],38,0,38,0,49.29978909995407,,10,49.293623900040984,49.29978909995407,49.29978909995407,0.017494300147518516,50.77885099989362,[np.float64(-0.4898148148148148)],[np.float64(-0.04537037037037037)],[1],[0],[0],[1.485144600039348],['target'],4,001,2025-09-30_15h54.41.984,Visual Search,,2025.1.1,60.006792764778794,2025-09-30 15h54.51.931161 +0530,
39,0,39,[np.float64(-0.43148148148148147)],[np.float64(-0.4305555555555556)],[1],[0],[0],[1.5654158000834286],[None],39,0,39,0,50.8003193999175,,10,50.79450279986486,50.8003193999175,50.8003193999175,0.015482599847018719,52.35997590003535,[np.float64(-0.43148148148148147)],[np.float64(-0.4305555555555556)],[1],[0],[0],[1.5654158000834286],[None],4,001,2025-09-30_15h54.41.984,Visual Search,,2025.1.1,60.006792764778794,2025-09-30 15h54.51.931161 +0530,
40,0,40,[np.float64(0.19907407407407407)],[np.float64(0.26944444444444443)],[1],[0],[0],[1.221671000123024],['target'],40,0,40,0,52.37980109988712,,10,52.373703999910504,52.37980109988712,52.37980109988712,0.013607400003820658,53.595466299913824,[np.float64(0.19907407407407407)],[np.float64(0.26944444444444443)],[1],[0],[0],[1.221671000123024],['target'],4,001,2025-09-30_15h54.41.984,Visual Search,,2025.1.1,60.006792764778794,2025-09-30 15h54.51.931161 +0530,
41,0,41,[np.float64(0.028703703703703703)],[np.float64(0.41944444444444445)],[1],[0],[0],[1.205244799843058],['target'],41,0,41,0,53.60939490003511,,5,53.604653500020504,53.60939490003511,53.60939490003511,0.008997500175610185,54.80995239992626,[np.float64(0.028703703703703703)],[np.float64(0.41944444444444445)],[1],[0],[0],[1.205244799843058],['target'],4,001,2025-09-30_15h54.41.984,Visual Search,,2025.1.1,60.006792764778794,2025-09-30 15h54.51.931161 +0530,
42,0,42,[np.float64(0.028703703703703703)],[np.float64(-0.36574074074074076)],[1],[0],[0],[1.1501023999881],['target'],42,0,42,0,54.831921600038186,,10,54.82573159993626,54.831921600038186,54.831921600038186,0.015704700024798512,55.975911899935454,[np.float64(0.028703703703703703)],[np.float64(-0.36574074074074076)],[1],[0],[0],[1.1501023999881],['target'],4,001,2025-09-30_15h54.41.984,Visual Search,,2025.1.1,60.006792764778794,2025-09-30 15h54.51.931161 +0530,
43,0,43,[np.float64(-0.19444444444444445)],[np.float64(-0.3314814814814815)],[1],[0],[0],[1.1194434000644833],['target'],43,0,43,0,55.997266799909994,,10,55.99062870000489,55.997266799909994,55.997266799909994,0.014547599945217371,57.11013889987953,[np.float64(-0.19444444444444445)],[np.float64(-0.3314814814814815)],[1],[0],[0],[1.1194434000644833],['target'],4,001,2025-09-30_15h54.41.984,Visual Search,,2025.1.1,60.006792764778794,2025-09-30 15h54.51.931161 +0530,
44,0,44,[np.float64(0.10185185185185185)],[np.float64(0.35555555555555557)],[1],[0],[0],[1.1663770000450313],[None],44,0,44,0,57.131886899936944,,10,57.12565770000219,57.131886899936944,57.131886899936944,0.01540719997137785,58.29218109999783,[np.float64(0.10185185185185185)],[np.float64(0.35555555555555557)],[1],[0],[0],[1.1663770000450313],[None],4,001,2025-09-30_15h54.41.984,Visual Search,,2025.1.1,60.006792764778794,2025-09-30 15h54.51.931161 +0530,
45,0,45,[np.float64(0.4305555555555556)],[np.float64(-0.12407407407407407)],[1],[0],[0],[1.1343368999660015],['target'],45,0,45,0,58.31694939988665,,10,58.311036200029776,58.31694939988665,58.31694939988665,0.01852759998291731,59.445467700017616,[np.float64(0.4305555555555556)],[np.float64(-0.12407407407407407)],[1],[0],[0],[1.1343368999660015],['target'],4,001,2025-09-30_15h54.41.984,Visual Search,,2025.1.1,60.006792764778794,2025-09-30 15h54.51.931161 +0530,
46,0,46,[np.float64(-0.07407407407407407)],[np.float64(-0.03796296296296296)],[1],[0],[0],[1.1530001999344677],['target'],46,0,46,0,59.4641553000547,,5,59.45967649994418,59.4641553000547,59.4641553000547,0.014000700088217854,60.61281550000422,[np.float64(-0.07407407407407407)],[np.float64(-0.03796296296296296)],[1],[0],[0],[1.1530001999344677],['target'],4,001,2025-09-30_15h54.41.984,Visual Search,,2025.1.1,60.006792764778794,2025-09-30 15h54.51.931161 +0530,
47,0,47,[np.float64(-0.2074074074074074)],[np.float64(0.017592592592592594)],[1],[0],[0],[1.151484200032428],[None],47,0,47,0,60.635123200016096,,10,60.6292347998824,60.635123200016096,60.635123200016096,0.015980300027877092,61.7808147999458,[np.float64(-0.2074074074074074)],[np.float64(0.017592592592592594)],[1],[0],[0],[1.151484200032428],[None],4,001,2025-09-30_15h54.41.984,Visual Search,,2025.1.1,60.006792764778794,2025-09-30 15h54.51.931161 +0530,
48,0,48,[np.float64(0.2064814814814815)],[np.float64(0.2074074074074074)],[1],[0],[0],[0.9879121000412852],['target'],48,0,48,0,61.794160899939016,,5,61.78971889987588,61.794160899939016,61.794160899939016,0.008715099887922406,62.777747799875215,[np.float64(0.2064814814814815)],[np.float64(0.2074074074074074)],[1],[0],[0],[0.9879121000412852],['target'],4,001,2025-09-30_15h54.41.984,Visual Search,,2025.1.1,60.006792764778794,2025-09-30 15h54.51.931161 +0530,
49,0,49,[np.float64(-0.387037037037037)],[np.float64(0.2759259259259259)],[1],[0],[0],[1.1353307999670506],['target'],49,0,49,0,62.79353899997659,,5,62.78883360000327,62.79353899997659,62.79353899997659,0.010914500104263425,63.92421690002084,[np.float64(-0.387037037037037)],[np.float64(0.2759259259259259)],[1],[0],[0],[1.1353307999670506],['target'],4,001,2025-09-30_15h54.41.984,Visual Search,,2025.1.1,60.006792764778794,2025-09-30 15h54.51.931161 +0530,
50,0,50,[np.float64(-0.2722222222222222)],[np.float64(0.47962962962962963)],[1],[0],[0],[1.122313399799168],[None],50,0,50,0,63.94571279990487,,10,63.939554000040516,63.94571279990487,63.94571279990487,0.015254899859428406,65.06196279986762,[np.float64(-0.2722222222222222)],[np.float64(0.47962962962962963)],[1],[0],[0],[1.122313399799168],[None],4,001,2025-09-30_15h54.41.984,Visual Search,,2025.1.1,60.006792764778794,2025-09-30 15h54.51.931161 +0530,
51,0,51,[np.float64(-0.21388888888888888)],[np.float64(-0.21666666666666667)],[1],[0],[0],[1.332220199983567],['target'],51,0,51,0,65.08522669994272,,10,65.07903390005231,65.08522669994272,65.08522669994272,0.016875999979674816,66.41132809990086,[np.float64(-0.21388888888888888)],[np.float64(-0.21666666666666667)],[1],[0],[0],[1.332220199983567],['target'],4,001,2025-09-30_15h54.41.984,Visual Search,,2025.1.1,60.006792764778794,2025-09-30 15h54.51.931161 +0530,
52,0,52,[np.float64(0.35555555555555557)],[np.float64(-0.125)],[1],[0],[0],[1.7146942999679595],['target'],52,0,52,0,66.4338676999323,,10,66.42777639999986,66.4338676999323,66.4338676999323,0.016226499807089567,68.14251959999092,[np.float64(0.35555555555555557)],[np.float64(-0.125)],[1],[0],[0],[1.7146942999679595],['target'],4,001,2025-09-30_15h54.41.984,Visual Search,,2025.1.1,60.006792764778794,2025-09-30 15h54.51.931161 +0530,
53,0,53,[np.float64(-0.4425925925925926)],[np.float64(-0.3824074074074074)],[1],[0],[0],[1.3717175000347197],['target'],53,0,53,0,68.16185309994034,,10,68.15613509994,68.16185309994034,68.16185309994034,0.013535700039938092,69.52792809996754,[np.float64(-0.4425925925925926)],[np.float64(-0.3824074074074074)],[1],[0],[0],[1.3717175000347197],['target'],4,001,2025-09-30_15h54.41.984,Visual Search,,2025.1.1,60.006792764778794,2025-09-30 15h54.51.931161 +0530,
54,0,54,[np.float64(0.06388888888888888)],[np.float64(0.34814814814814815)],[1],[0],[0],[1.227605100022629],[None],54,0,54,0,69.54018400004134,,5,69.53562700003386,69.54018400004134,69.54018400004134,0.007529499940574169,70.76333409990184,[np.float64(0.06388888888888888)],[np.float64(0.34814814814814815)],[1],[0],[0],[1.227605100022629],[None],4,001,2025-09-30_15h54.41.984,Visual Search,,2025.1.1,60.006792764778794,2025-09-30 15h54.51.931161 +0530,
55,0,55,[np.float64(0.28888888888888886)],[np.float64(-0.23055555555555557)],[1],[0],[0],[1.2660481999628246],['target'],55,0,55,0,70.78576879994944,,10,70.77978289988823,70.78576879994944,70.78576879994944,0.016280199866741896,72.04597089998424,[np.float64(0.28888888888888886)],[np.float64(-0.23055555555555557)],[1],[0],[0],[1.2660481999628246],['target'],4,001,2025-09-30_15h54.41.984,Visual Search,,2025.1.1,60.006792764778794,2025-09-30 15h54.51.931161 +0530,
56,0,56,[np.float64(0.1935185185185185)],[np.float64(0.2564814814814815)],[1],[0],[0],[1.5292909999843687],['target'],56,0,56,0,72.07047710008919,,10,72.0642983999569,72.07047710008919,72.07047710008919,0.01804440002888441,73.59366080001928,[np.float64(0.1935185185185185)],[np.float64(0.2564814814814815)],[1],[0],[0],[1.5292909999843687],['target'],4,001,2025-09-30_15h54.41.984,Visual Search,,2025.1.1,60.006792764778794,2025-09-30 15h54.51.931161 +0530,
57,0,57,[np.float64(-0.08981481481481482)],[np.float64(0.33796296296296297)],[1],[0],[0],[1.2176523001398891],['target'],57,0,57,0,73.61714200000279,,10,73.61101130000316,73.61714200000279,73.61714200000279,0.017218500142917037,74.82876749988645,[np.float64(-0.08981481481481482)],[np.float64(0.33796296296296297)],[1],[0],[0],[1.2176523001398891],['target'],4,001,2025-09-30_15h54.41.984,Visual Search,,2025.1.1,60.006792764778794,2025-09-30 15h54.51.931161 +0530,
58,0,58,[np.float64(-0.2324074074074074)],[np.float64(0.18981481481481483)],[1],[0],[0],[1.001792199909687],['target'],58,0,58,0,74.85143429995514,,10,74.84555449988693,74.85143429995514,74.85143429995514,0.01657500001601875,75.8474471999798,[np.float64(-0.2324074074074074)],[np.float64(0.18981481481481483)],[1],[0],[0],[1.001792199909687],['target'],4,001,2025-09-30_15h54.41.984,Visual Search,,2025.1.1,60.006792764778794,2025-09-30 15h54.51.931161 +0530,
59,0,59,[np.float64(-0.36203703703703705)],[np.float64(-0.41759259259259257)],[1],[0],[0],[1.3055510001722723],[None],59,0,59,0,75.86244859988801,,5,75.85807610000484,75.86244859988801,75.86244859988801,0.010425199987366796,77.1637192000635,[np.float64(-0.36203703703703705)],[np.float64(-0.41759259259259257)],[1],[0],[0],[1.3055510001722723],[None],4,001,2025-09-30_15h54.41.984,Visual Search,,2025.1.1,60.006792764778794,2025-09-30 15h54.51.931161 +0530,
60,0,60,[np.float64(0.4111111111111111)],[np.float64(-0.175)],[1],[0],[0],[1.2152704999316484],[None],60,0,60,0,77.18518509995192,,10,77.1795129000675,77.18518509995192,77.18518509995192,0.015639400109648705,78.3948715000879,[np.float64(0.4111111111111111)],[np.float64(-0.175)],[1],[0],[0],[1.2152704999316484],[None],4,001,2025-09-30_15h54.41.984,Visual Search,,2025.1.1,60.006792764778794,2025-09-30 15h54.51.931161 +0530,
61,0,61,[np.float64(0.25462962962962965)],[np.float64(-0.3972222222222222)],[1],[0],[0],[1.2590856000315398],['target'],61,0,61,0,78.40811379998922,,5,78.40355010004714,78.40811379998922,78.40811379998922,0.008494500070810318,79.66272550006397,[np.float64(0.25462962962962965)],[np.float64(-0.3972222222222222)],[1],[0],[0],[1.2590856000315398],['target'],4,001,2025-09-30_15h54.41.984,Visual Search,,2025.1.1,60.006792764778794,2025-09-30 15h54.51.931161 +0530,
62,0,62,[np.float64(-0.16574074074074074)],[np.float64(-0.009259259259259259)],[1],[0],[0],[1.0742834999691695],['target'],62,0,62,0,79.6755295000039,,5,79.67110670008697,79.6755295000039,79.6755295000039,0.008199800038710237,80.74552939995192,[np.float64(-0.16574074074074074)],[np.float64(-0.009259259259259259)],[1],[0],[0],[1.0742834999691695],['target'],4,001,2025-09-30_15h54.41.984,Visual Search,,2025.1.1,60.006792764778794,2025-09-30 15h54.51.931161 +0530,
63,0,63,[np.float64(0.03611111111111111)],[np.float64(0.32222222222222224)],[1],[0],[0],[1.1060584001243114],['target'],63,0,63,0,80.75945760007016,,5,80.75544729991816,80.75945760007016,80.75945760007016,0.009706999873742461,81.86161829996854,[np.float64(0.03611111111111111)],[np.float64(0.32222222222222224)],[1],[0],[0],[1.1060584001243114],['target'],4,001,2025-09-30_15h54.41.984,Visual Search,,2025.1.1,60.006792764778794,2025-09-30 15h54.51.931161 +0530,
64,0,64,[np.float64(0.1787037037037037)],[np.float64(-0.05092592592592592)],[1],[0],[0],[1.025215100031346],['target'],64,0,64,0,81.87674249988049,,5,81.87239110004157,81.87674249988049,81.87674249988049,0.010583800030872226,82.89770459989086,[np.float64(0.1787037037037037)],[np.float64(-0.05092592592592592)],[1],[0],[0],[1.025215100031346],['target'],4,001,2025-09-30_15h54.41.984,Visual Search,,2025.1.1,60.006792764778794,2025-09-30 15h54.51.931161 +0530,
65,0,65,[np.float64(-0.3148148148148148)],[np.float64(-0.14537037037037037)],[1],[0],[0],[1.0560900999698788],['target'],65,0,65,0,82.91074179997668,,5,82.9064090999309,82.91074179997668,82.91074179997668,0.008541499963030219,83.96259479993023,[np.float64(-0.3148148148148148)],[np.float64(-0.14537037037037037)],[1],[0],[0],[1.0560900999698788],['target'],4,001,2025-09-30_15h54.41.984,Visual Search,,2025.1.1,60.006792764778794,2025-09-30 15h54.51.931161 +0530,
66,0,66,[np.float64(-0.14074074074074075)],[np.float64(0.3472222222222222)],[1],[0],[0],[1.115726500051096],[None],66,0,66,0,83.98512870003469,,10,83.97915769997053,83.98512870003469,83.98512870003469,0.016393000027164817,85.09497989993542,[np.float64(-0.14074074074074075)],[np.float64(0.3472222222222222)],[1],[0],[0],[1.115726500051096],[None],4,001,2025-09-30_15h54.41.984,Visual Search,,2025.1.1,60.006792764778794,2025-09-30 15h54.51.931161 +0530,
67,0,67,[np.float64(0.4564814814814815)],[np.float64(-0.1388888888888889)],[1],[0],[0],[1.1701470999978483],[None],67,0,67,0,85.11025989986956,,5,85.10580109991133,85.11025989986956,85.11025989986956,0.010641700122505426,86.27609529998153,[np.float64(0.4564814814814815)],[np.float64(-0.1388888888888889)],[1],[0],[0],[1.1701470999978483],[None],4,001,2025-09-30_15h54.41.984,Visual Search,,2025.1.1,60.006792764778794,2025-09-30 15h54.51.931161 +0530,
68,0,68,[np.float64(-0.48518518518518516)],[np.float64(0.34074074074074073)],[1],[0],[0],[1.9503424998838454],['target'],68,0,68,0,86.30186200002208,,10,86.29589199996553,86.30186200002208,86.30186200002208,0.019560900051146746,88.24632639996707,[np.float64(-0.48518518518518516)],[np.float64(0.34074074074074073)],[1],[0],[0],[1.9503424998838454],['target'],4,001,2025-09-30_15h54.41.984,Visual Search,,2025.1.1,60.006792764778794,2025-09-30 15h54.51.931161 +0530,
69,0,69,[np.float64(0.25555555555555554)],[np.float64(0.01574074074074074)],[1],[0],[0],[1.0469931999687105],['target'],69,0,69,0,88.26830270001665,,10,88.26240250002593,88.26830270001665,88.26830270001665,0.015893299831077456,89.30946470005438,[np.float64(0.25555555555555554)],[np.float64(0.01574074074074074)],[1],[0],[0],[1.0469931999687105],['target'],4,001,2025-09-30_15h54.41.984,Visual Search,,2025.1.1,60.006792764778794,2025-09-30 15h54.51.931161 +0530,
70,0,70,[np.float64(-0.21388888888888888)],[np.float64(-0.37962962962962965)],[1],[0],[0],[1.0532023999840021],['target'],70,0,70,0,89.32656469987705,,5,89.32152720005251,89.32656469987705,89.32656469987705,0.011915599927306175,90.37484649987891,[np.float64(-0.21388888888888888)],[np.float64(-0.37962962962962965)],[1],[0],[0],[1.0532023999840021],['target'],4,001,2025-09-30_15h54.41.984,Visual Search,,2025.1.1,60.006792764778794,2025-09-30 15h54.51.931161 +0530,
71,0,71,[np.float64(0.37592592592592594)],[np.float64(0.019444444444444445)],[1],[0],[0],[1.1541178999468684],['target'],71,0,71,0,90.39691919996403,,10,90.39085269998759,90.39691919996403,90.39691919996403,0.01579670002683997,91.54506619996391,[np.float64(0.37592592592592594)],[np.float64(0.019444444444444445)],[1],[0],[0],[1.1541178999468684],['target'],4,001,2025-09-30_15h54.41.984,Visual Search,,2025.1.1,60.006792764778794,2025-09-30 15h54.51.931161 +0530,
72,0,72,[np.float64(-0.32685185185185184)],[np.float64(-0.3712962962962963)],[1],[0],[0],[1.0311918000224978],['target'],72,0,72,0,91.56997469998896,,10,91.5639243000187,91.56997469998896,91.56997469998896,0.018670100020244718,92.59521719999611,[np.float64(-0.32685185185185184)],[np.float64(-0.3712962962962963)],[1],[0],[0],[1.0311918000224978],['target'],4,001,2025-09-30_15h54.41.984,Visual Search,,2025.1.1,60.006792764778794,2025-09-30 15h54.51.931161 +0530,
73,0,73,[np.float64(-0.2972222222222222)],[np.float64(0.15555555555555556)],[1],[0],[0],[0.9951148999389261],['target'],73,0,73,0,92.6190655999817,,10,92.6133198000025,92.6190655999817,92.6190655999817,0.017893799813464284,93.60855520004407,[np.float64(-0.2972222222222222)],[np.float64(0.15555555555555556)],[1],[0],[0],[0.9951148999389261],['target'],4,001,2025-09-30_15h54.41.984,Visual Search,,2025.1.1,60.006792764778794,2025-09-30 15h54.51.931161 +0530,
74,0,74,[np.float64(-0.25277777777777777)],[np.float64(0.44074074074074077)],[1],[0],[0],[1.3743527000769973],['target'],74,0,74,0,93.62375429994427,,5,93.61953180003911,93.62375429994427,93.62375429994427,0.010726199951022863,94.99399079987779,[np.float64(-0.25277777777777777)],[np.float64(0.44074074074074077)],[1],[0],[0],[1.3743527000769973],['target'],4,001,2025-09-30_15h54.41.984,Visual Search,,2025.1.1,60.006792764778794,2025-09-30 15h54.51.931161 +0530,
75,0,75,[np.float64(-0.07222222222222222)],[np.float64(-0.13240740740740742)],[1],[0],[0],[1.1668215000536293],['target'],75,0,75,0,95.01603389997035,,10,95.01010040007532,95.01603389997035,95.01603389997035,0.015931500121951103,96.17701409989968,[np.float64(-0.07222222222222222)],[np.float64(-0.13240740740740742)],[1],[0],[0],[1.1668215000536293],['target'],4,001,2025-09-30_15h54.41.984,Visual Search,,2025.1.1,60.006792764778794,2025-09-30 15h54.51.931161 +0530,
76,0,76,[np.float64(-0.4203703703703704)],[np.float64(-0.2611111111111111)],[1],[0],[0],[1.2079932999331504],[None],76,0,76,0,96.19042739993893,,5,96.1862047999166,96.19042739993893,96.19042739993893,0.008973899995908141,97.39429900003597,[np.float64(-0.4203703703703704)],[np.float64(-0.2611111111111111)],[1],[0],[0],[1.2079932999331504],[None],4,001,2025-09-30_15h54.41.984,Visual Search,,2025.1.1,60.006792764778794,2025-09-30 15h54.51.931161 +0530,
77,0,77,[np.float64(-0.35833333333333334)],[np.float64(0.1675925925925926)],[1],[0],[0],[1.197037999983877],[None],77,0,77,0,97.41825099987909,,10,97.41179979988374,97.41825099987909,97.41825099987909,0.017329299822449684,98.60890850005671,[np.float64(-0.35833333333333334)],[np.float64(0.1675925925925926)],[1],[0],[0],[1.197037999983877],[None],4,001,2025-09-30_15h54.41.984,Visual Search,,2025.1.1,60.006792764778794,2025-09-30 15h54.51.931161 +0530,
78,0,78,[np.float64(0.28888888888888886)],[np.float64(-0.014814814814814815)],[1],[0],[0],[1.1361656000372022],['target'],78,0,78,0,98.63190630008467,,10,98.62562639988028,98.63190630008467,98.63190630008467,0.016587099991738796,99.76189299998805,[np.float64(0.28888888888888886)],[np.float64(-0.014814814814814815)],[1],[0],[0],[1.1361656000372022],['target'],4,001,2025-09-30_15h54.41.984,Visual Search,,2025.1.1,60.006792764778794,2025-09-30 15h54.51.931161 +0530,
79,0,79,[np.float64(0.4527777777777778)],[np.float64(-0.40185185185185185)],[1],[0],[0],[1.8477034999523312],[None],79,0,79,0,99.78873130003922,,10,99.78187109995633,99.78873130003922,99.78873130003922,0.01976149994879961,101.62967819999903,[np.float64(0.4527777777777778)],[np.float64(-0.40185185185185185)],[1],[0],[0],[1.8477034999523312],[None],4,001,2025-09-30_15h54.41.984,Visual Search,,2025.1.1,60.006792764778794,2025-09-30 15h54.51.931161 +0530,
80,0,80,[np.float64(-0.3685185185185185)],[np.float64(0.15925925925925927)],[1],[0],[0],[1.1873397999443114],['target'],80,0,80,0,101.64690420008264,,5,101.64263879996724,101.64690420008264,101.64690420008264,0.01275360002182424,102.83008220000193,[np.float64(-0.3685185185185185)],[np.float64(0.15925925925925927)],[1],[0],[0],[1.1873397999443114],['target'],4,001,2025-09-30_15h54.41.984,Visual Search,,2025.1.1,60.006792764778794,2025-09-30 15h54.51.931161 +0530,
81,0,81,[np.float64(-0.1638888888888889)],[np.float64(-0.24814814814814815)],[1],[0],[0],[1.1855979999527335],['target'],81,0,81,0,102.84387940005399,,5,102.83962209988385,102.84387940005399,102.84387940005399,0.009338699979707599,104.02536410000175,[np.float64(-0.1638888888888889)],[np.float64(-0.24814814814814815)],[1],[0],[0],[1.1855979999527335],['target'],4,001,2025-09-30_15h54.41.984,Visual Search,,2025.1.1,60.006792764778794,2025-09-30 15h54.51.931161 +0530,
82,0,82,[np.float64(0.387037037037037)],[np.float64(0.32685185185185184)],[1],[0],[0],[1.059713700087741],['target'],82,0,82,0,104.04032310005277,,5,104.03580789989792,104.04032310005277,104.04032310005277,0.01017399993725121,105.0956202999223,[np.float64(0.387037037037037)],[np.float64(0.32685185185185184)],[1],[0],[0],[1.059713700087741],['target'],4,001,2025-09-30_15h54.41.984,Visual Search,,2025.1.1,60.006792764778794,2025-09-30 15h54.51.931161 +0530,
83,0,83,[np.float64(0.43425925925925923)],[np.float64(0.35185185185185186)],[1],[0],[0],[0.9206290000583977],[None],83,0,83,0,105.10997199988924,,5,105.10436700005084,105.10997199988924,105.10997199988924,0.00857850001193583,106.02511649997905,[np.float64(0.43425925925925923)],[np.float64(0.35185185185185186)],[1],[0],[0],[0.9206290000583977],[None],4,001,2025-09-30_15h54.41.984,Visual Search,,2025.1.1,60.006792764778794,2025-09-30 15h54.51.931161 +0530,
84,0,84,[np.float64(0.06296296296296296)],[np.float64(-0.1537037037037037)],[1],[0],[0],[1.1726274997927248],['target'],84,0,84,0,106.04001439991407,,5,106.03582539991476,106.04001439991407,106.04001439991407,0.01047810004092753,107.20860109990463,[np.float64(0.06296296296296296)],[np.float64(-0.1537037037037037)],[1],[0],[0],[1.1726274997927248],['target'],4,001,2025-09-30_15h54.41.984,Visual Search,,2025.1.1,60.006792764778794,2025-09-30 15h54.51.931161 +0530,
85,0,85,[np.float64(-0.46296296296296297)],[np.float64(-0.35648148148148145)],[1],[0],[0],[1.8094403001014143],['target'],85,0,85,0,107.22377409995534,,5,107.21974020008929,107.22377409995534,107.22377409995534,0.01082460000179708,109.02928939997219,[np.float64(-0.46296296296296297)],[np.float64(-0.35648148148148145)],[1],[0],[0],[1.8094403001014143],['target'],4,001,2025-09-30_15h54.41.984,Visual Search,,2025.1.1,60.006792764778794,2025-09-30 15h54.51.931161 +0530,
86,0,86,[np.float64(0.028703703703703703)],[np.float64(0.11296296296296296)],[1],[0],[0],[1.1580453999340534],['target'],86,0,86,0,109.04260899988003,,5,109.0383369999472,109.04260899988003,109.04260899988003,0.008881600107997656,110.1964869000949,[np.float64(0.028703703703703703)],[np.float64(0.11296296296296296)],[1],[0],[0],[1.1580453999340534],['target'],4,001,2025-09-30_15h54.41.984,Visual Search,,2025.1.1,60.006792764778794,2025-09-30 15h54.51.931161 +0530,
87,0,87,[np.float64(-0.2175925925925926)],[np.float64(-0.48703703703703705)],[1],[0],[0],[1.7798172000329942],['target'],87,0,87,0,110.21893139998429,,10,110.21316269994713,110.21893139998429,110.21893139998429,0.016495099989697337,111.99306360003538,[np.float64(-0.2175925925925926)],[np.float64(-0.48703703703703705)],[1],[0],[0],[1.7798172000329942],['target'],4,001,2025-09-30_15h54.41.984,Visual Search,,2025.1.1,60.006792764778794,2025-09-30 15h54.51.931161 +0530,
88,0,88,[np.float64(-0.12685185185185185)],[np.float64(0.26944444444444443)],[1],[0],[0],[1.1530729001387954],['target'],88,0,88,0,112.01487670000643,,10,112.00909160007723,112.01487670000643,112.01487670000643,0.015839400002732873,113.16227229987271,[np.float64(-0.12685185185185185)],[np.float64(0.26944444444444443)],[1],[0],[0],[1.1530729001387954],['target'],4,001,2025-09-30_15h54.41.984,Visual Search,,2025.1.1,60.006792764778794,2025-09-30 15h54.51.931161 +0530,
89,0,89,[np.float64(0.2833333333333333)],[np.float64(0.07222222222222222)],[1],[0],[0],[1.1526247998699546],['target'],89,0,89,0,113.18292140006088,,10,113.17715150001459,113.18292140006088,113.18292140006088,0.01468120003119111,114.32988040009513,[np.float64(0.2833333333333333)],[np.float64(0.07222222222222222)],[1],[0],[0],[1.1526247998699546],['target'],4,001,2025-09-30_15h54.41.984,Visual Search,,2025.1.1,60.006792764778794,2025-09-30 15h54.51.931161 +0530,
90,0,90,[np.float64(0.10277777777777777)],[np.float64(-0.08333333333333333)],[1],[0],[0],[1.0298805001657456],['target'],90,0,90,0,114.35253849998116,,10,114.34634599997662,114.35253849998116,114.35253849998116,0.016252500005066395,115.3762997998856,[np.float64(0.10277777777777777)],[np.float64(-0.08333333333333333)],[1],[0],[0],[1.0298805001657456],['target'],4,001,2025-09-30_15h54.41.984,Visual Search,,2025.1.1,60.006792764778794,2025-09-30 15h54.51.931161 +0530,
91,0,91,[np.float64(-0.2361111111111111)],[np.float64(-0.024074074074074074)],[1],[0],[0],[1.575375400017947],['target'],91,0,91,0,115.38931260001846,,5,115.38471739995293,115.38931260001846,115.38931260001846,0.00826190016232431,116.96017199987546,[np.float64(-0.2361111111111111)],[np.float64(-0.024074074074074074)],[1],[0],[0],[1.575375400017947],['target'],4,001,2025-09-30_15h54.41.984,Visual Search,,2025.1.1,60.006792764778794,2025-09-30 15h54.51.931161 +0530,
92,0,92,[np.float64(-0.4425925925925926)],[np.float64(0.10925925925925926)],[1],[0],[0],[1.1766741001047194],[None],92,0,92,0,116.97265950008295,,5,116.96818239986897,116.97265950008295,116.97265950008295,0.007872099988162518,118.1449575999286,[np.float64(-0.4425925925925926)],[np.float64(0.10925925925925926)],[1],[0],[0],[1.1766741001047194],[None],4,001,2025-09-30_15h54.41.984,Visual Search,,2025.1.1,60.006792764778794,2025-09-30 15h54.51.931161 +0530,
93,0,93,[np.float64(-0.44907407407407407)],[np.float64(-0.37962962962962965)],[1],[0],[0],[1.723408400081098],['target'],93,0,93,0,118.15839529992081,,5,118.15405929996632,118.15839529992081,118.15839529992081,0.008942999877035618,119.87756809988059,[np.float64(-0.44907407407407407)],[np.float64(-0.37962962962962965)],[1],[0],[0],[1.723408400081098],['target'],4,001,2025-09-30_15h54.41.984,Visual Search,,2025.1.1,60.006792764778794,2025-09-30 15h54.51.931161 +0530,
94,0,94,[np.float64(0.28425925925925927)],[np.float64(0.24351851851851852)],[1],[0],[0],[1.6049097999930382],['target'],94,0,94,0,119.89422119990923,,5,119.89009450003505,119.89422119990923,119.89422119990923,0.012356000021100044,121.49509779992513,[np.float64(0.28425925925925927)],[np.float64(0.24351851851851852)],[1],[0],[0],[1.6049097999930382],['target'],4,001,2025-09-30_15h54.41.984,Visual Search,,2025.1.1,60.006792764778794,2025-09-30 15h54.51.931161 +0530,
95,0,95,[np.float64(-0.1675925925925926)],[np.float64(-0.19907407407407407)],[1],[0],[0],[1.7513093999587],['target'],95,0,95,0,121.51592710008845,,10,121.51016839989461,121.51592710008845,121.51592710008845,0.014902699971571565,123.26157890004106,[np.float64(-0.1675925925925926)],[np.float64(-0.19907407407407407)],[1],[0],[0],[1.7513093999587],['target'],4,001,2025-09-30_15h54.41.984,Visual Search,,2025.1.1,60.006792764778794,2025-09-30 15h54.51.931161 +0530,
96,0,96,[np.float64(0.21388888888888888)],[np.float64(-0.08055555555555556)],[1],[0],[0],[1.1346668999176472],['target'],96,0,96,0,123.28252990008332,,10,123.27685460005887,123.28252990008332,123.28252990008332,0.015055400086566806,124.41162470006384,[np.float64(0.21388888888888888)],[np.float64(-0.08055555555555556)],[1],[0],[0],[1.1346668999176472],['target'],4,001,2025-09-30_15h54.41.984,Visual Search,,2025.1.1,60.006792764778794,2025-09-30 15h54.51.931161 +0530,
97,0,97,[np.float64(0.38055555555555554)],[np.float64(-0.2935185185185185)],[1],[0],[0],[1.5041237999685109],['target'],97,0,97,0,124.42539229989052,,5,124.42092900001444,124.42539229989052,124.42539229989052,0.009092200081795454,125.92518549994566,[np.float64(0.38055555555555554)],[np.float64(-0.2935185185185185)],[1],[0],[0],[1.5041237999685109],['target'],4,001,2025-09-30_15h54.41.984,Visual Search,,2025.1.1,60.006792764778794,2025-09-30 15h54.51.931161 +0530,
98,0,98,[np.float64(0.14074074074074075)],[np.float64(0.2722222222222222)],[1],[0],[0],[1.333358399802819],['target'],98,0,98,0,125.95132829993963,,10,125.94517119997181,125.95132829993963,125.95132829993963,0.019768700003623962,127.27862520003691,[np.float64(0.14074074074074075)],[np.float64(0.2722222222222222)],[1],[0],[0],[1.333358399802819],['target'],4,001,2025-09-30_15h54.41.984,Visual Search,,2025.1.1,60.006792764778794,2025-09-30 15h54.51.931161 +0530,
99,0,99,[np.float64(-0.25555555555555554)],[np.float64(0.19722222222222222)],[1],[0],[0],[1.341580000007525],[None],99,0,99,0,127.29194510006346,,5,127.2876504000742,127.29194510006346,127.29194510006346,0.0088321000803262,128.62933319993317,[np.float64(-0.25555555555555554)],[np.float64(0.19722222222222222)],[1],[0],[0],[1.341580000007525],[None],4,001,2025-09-30_15h54.41.984,Visual Search,,2025.1.1,60.006792764778794,2025-09-30 15h54.51.931161 +0530,
100,0,100,[np.float64(0.4685185185185185)],[np.float64(-0.10185185185185185)],[1],[0],[0],[1.2395315999165177],['target'],100,0,100,0,128.64281990006566,,5,128.63859830005094,128.64281990006566,128.64281990006566,0.009095299988985062,129.87824069987983,[np.float64(0.4685185185185185)],[np.float64(-0.10185185185185185)],[1],[0],[0],[1.2395315999165177],['target'],4,001,2025-09-30_15h54.41.984,Visual Search,,2025.1.1,60.006792764778794,2025-09-30 15h54.51.931161 +0530,
101,0,101,[np.float64(-0.19444444444444445)],[np.float64(-0.30185185185185187)],[1],[0],[0],[1.735258499858901],['target'],101,0,101,0,129.89408180001192,,5,129.88888720003888,129.89408180001192,129.89408180001192,0.010475099785253406,131.6242555999197,[np.float64(-0.19444444444444445)],[np.float64(-0.30185185185185187)],[1],[0],[0],[1.735258499858901],['target'],4,001,2025-09-30_15h54.41.984,Visual Search,,2025.1.1,60.006792764778794,2025-09-30 15h54.51.931161 +0530,
102,0,102,[np.float64(0.4648148148148148)],[np.float64(-0.32314814814814813)],[1],[0],[0],[1.1812702999450266],['target'],102,0,102,0,131.65140419988893,,10,131.6455667000264,131.65140419988893,131.65140419988893,0.021105699939653277,132.82692110002972,[np.float64(0.4648148148148148)],[np.float64(-0.32314814814814813)],[1],[0],[0],[1.1812702999450266],['target'],4,001,2025-09-30_15h54.41.984,Visual Search,,2025.1.1,60.006792764778794,2025-09-30 15h54.51.931161 +0530,
103,0,103,[np.float64(-0.2222222222222222)],[np.float64(0.08148148148148149)],[1],[0],[0],[1.2587731000967324],['target'],103,0,103,0,132.8397351000458,,5,132.8352898999583,132.8397351000458,132.8397351000458,0.008198500145226717,134.0941345000174,[np.float64(-0.2222222222222222)],[np.float64(0.08148148148148149)],[1],[0],[0],[1.2587731000967324],['target'],4,001,2025-09-30_15h54.41.984,Visual Search,,2025.1.1,60.006792764778794,2025-09-30 15h54.51.931161 +0530,
104,0,104,[np.float64(-0.1287037037037037)],[np.float64(-0.24444444444444444)],[1],[0],[0],[1.2351114999037236],['target'],104,0,104,0,134.11409020004794,,10,134.10825149994344,134.11409020004794,134.11409020004794,0.013998399954289198,135.3434512000531,[np.float64(-0.1287037037037037)],[np.float64(-0.24444444444444444)],[1],[0],[0],[1.2351114999037236],['target'],4,001,2025-09-30_15h54.41.984,Visual Search,,2025.1.1,60.006792764778794,2025-09-30 15h54.51.931161 +0530,
105,0,105,[np.float64(-0.40925925925925927)],[np.float64(0.39537037037037037)],[1],[0],[0],[1.3705362000036985],['target'],105,0,105,0,135.36383119993843,,10,135.35783490003087,135.36383119993843,135.36383119993843,0.014187299879267812,136.72845809999853,[np.float64(-0.40925925925925927)],[np.float64(0.39537037037037037)],[1],[0],[0],[1.3705362000036985],['target'],4,001,2025-09-30_15h54.41.984,Visual Search,,2025.1.1,60.006792764778794,2025-09-30 15h54.51.931161 +0530,
106,0,106,[np.float64(0.1425925925925926)],[np.float64(-0.0787037037037037)],[1],[0],[0],[1.2239568999502808],['target'],106,0,106,0,136.74272789992392,,5,136.73841340001673,136.74272789992392,136.74272789992392,0.00976840010844171,137.962461899966,[np.float64(0.1425925925925926)],[np.float64(-0.0787037037037037)],[1],[0],[0],[1.2239568999502808],['target'],4,001,2025-09-30_15h54.41.984,Visual Search,,2025.1.1,60.006792764778794,2025-09-30 15h54.51.931161 +0530,
107,0,107,[np.float64(0.41203703703703703)],[np.float64(0.17314814814814813)],[1],[0],[0],[1.4158845997881144],['target'],107,0,107,0,137.98402189998887,,10,137.9777466999367,137.98402189998887,137.98402189998887,0.015136099886149168,139.393724600086,[np.float64(0.41203703703703703)],[np.float64(0.17314814814814813)],[1],[0],[0],[1.4158845997881144],['target'],4,001,2025-09-30_15h54.41.984,Visual Search,,2025.1.1,60.006792764778794,2025-09-30 15h54.51.931161 +0530,
108,0,108,[np.float64(-0.42777777777777776)],[np.float64(-0.08518518518518518)],[1],[0],[0],[1.3739871999714524],['target'],108,0,108,0,139.40670270007104,,5,139.4025399000384,139.40670270007104,139.40670270007104,0.008639800129458308,140.7765945000574,[np.float64(-0.42777777777777776)],[np.float64(-0.08518518518518518)],[1],[0],[0],[1.3739871999714524],['target'],4,001,2025-09-30_15h54.41.984,Visual Search,,2025.1.1,60.006792764778794,2025-09-30 15h54.51.931161 +0530,
109,0,109,[np.float64(0.4722222222222222)],[np.float64(0.2537037037037037)],[1],[0],[0],[1.2239051000215113],['target'],109,0,109,0,140.7892626998946,,5,140.7840277000796,140.7892626998946,140.7892626998946,0.007327700033783913,142.00806050002575,[np.float64(0.4722222222222222)],[np.float64(0.2537037037037037)],[1],[0],[0],[1.2239051000215113],['target'],4,001,2025-09-30_15h54.41.984,Visual Search,,2025.1.1,60.006792764778794,2025-09-30 15h54.51.931161 +0530,
110,0,110,[np.float64(-0.49444444444444446)],[np.float64(0.3194444444444444)],[1],[0],[0],[1.1828927998431027],[None],110,0,110,0,142.0326531000901,,10,142.02682100003585,142.0326531000901,142.0326531000901,0.018522599944844842,143.20979480003007,[np.float64(-0.49444444444444446)],[np.float64(0.3194444444444444)],[1],[0],[0],[1.1828927998431027],[None],4,001,2025-09-30_15h54.41.984,Visual Search,,2025.1.1,60.006792764778794,2025-09-30 15h54.51.931161 +0530,
111,0,111,[np.float64(-0.06296296296296296)],[np.float64(0.13518518518518519)],[1],[0],[0],[1.3030131000559777],['target'],111,0,111,0,143.23067709989846,,10,143.22490669996478,143.23067709989846,143.23067709989846,0.01487100007943809,144.52799490001053,[np.float64(-0.06296296296296296)],[np.float64(0.13518518518518519)],[1],[0],[0],[1.3030131000559777],['target'],4,001,2025-09-30_15h54.41.984,Visual Search,,2025.1.1,60.006792764778794,2025-09-30 15h54.51.931161 +0530,
112,0,112,[np.float64(0.225)],[np.float64(0.044444444444444446)],[1],[0],[0],[1.1904835000168532],['target'],112,0,112,0,144.54035319993272,,5,144.53568019997329,144.54035319993272,144.54035319993272,0.007554200012236834,145.72624940006062,[np.float64(0.225)],[np.float64(0.044444444444444446)],[1],[0],[0],[1.1904835000168532],['target'],4,001,2025-09-30_15h54.41.984,Visual Search,,2025.1.1,60.006792764778794,2025-09-30 15h54.51.931161 +0530,
113,0,113,[np.float64(0.39351851851851855)],[np.float64(-0.3314814814814815)],[1],[0],[0],[1.7262260001152754],['target'],113,0,113,0,145.73882319987752,,5,145.73459429992363,145.73882319987752,145.73882319987752,0.008203099947422743,147.46091950009577,[np.float64(0.39351851851851855)],[np.float64(-0.3314814814814815)],[1],[0],[0],[1.7262260001152754],['target'],4,001,2025-09-30_15h54.41.984,Visual Search,,2025.1.1,60.006792764778794,2025-09-30 15h54.51.931161 +0530,
114,0,114,[np.float64(-0.4444444444444444)],[np.float64(0.09814814814814815)],[1],[0],[0],[1.2715280000120401],['target'],114,0,114,0,147.47627580002882,,5,147.47198810009286,147.47627580002882,147.47627580002882,0.010894800070673227,148.7436148999259,[np.float64(-0.4444444444444444)],[np.float64(0.09814814814814815)],[1],[0],[0],[1.2715280000120401],['target'],4,001,2025-09-30_15h54.41.984,Visual Search,,2025.1.1,60.006792764778794,2025-09-30 15h54.51.931161 +0530,
115,0,115,[np.float64(0.4064814814814815)],[np.float64(0.0962962962962963)],[1],[0],[0],[1.3527217998635024],['target'],115,0,115,0,148.76472169999033,,10,148.75883709988557,148.76472169999033,148.76472169999033,0.015058200107887387,150.11165159987286,[np.float64(0.4064814814814815)],[np.float64(0.0962962962962963)],[1],[0],[0],[1.3527217998635024],['target'],4,001,2025-09-30_15h54.41.984,Visual Search,,2025.1.1,60.006792764778794,2025-09-30 15h54.51.931161 +0530,
116,0,116,[np.float64(0.47314814814814815)],[np.float64(0.44537037037037036)],[1],[0],[0],[1.2648179999087006],['target'],116,0,116,0,150.1353060998954,,10,150.12936299992725,150.1353060998954,150.1353060998954,0.01753040007315576,151.39427309995517,[np.float64(0.47314814814814815)],[np.float64(0.44537037037037036)],[1],[0],[0],[1.2648179999087006],['target'],4,001,2025-09-30_15h54.41.984,Visual Search,,2025.1.1,60.006792764778794,2025-09-30 15h54.51.931161 +0530,
117,0,117,[np.float64(0.4462962962962963)],[np.float64(0.18055555555555555)],[1],[0],[0],[1.0905623000580817],['target'],117,0,117,0,151.40859619993716,,5,151.40434999996796,151.40859619993716,151.40859619993716,0.009893900016322732,152.49500510003418,[np.float64(0.4462962962962963)],[np.float64(0.18055555555555555)],[1],[0],[0],[1.0905623000580817],['target'],4,001,2025-09-30_15h54.41.984,Visual Search,,2025.1.1,60.006792764778794,2025-09-30 15h54.51.931161 +0530,
118,0,118,[np.float64(-0.17777777777777778)],[np.float64(0.05092592592592592)],[1],[0],[0],[1.1708529000170529],[None],118,0,118,0,152.5099927999545,,5,152.50576679990627,152.5099927999545,152.5099927999545,0.010600899811834097,153.67671309993602,[np.float64(-0.17777777777777778)],[np.float64(0.05092592592592592)],[1],[0],[0],[1.1708529000170529],[None],4,001,2025-09-30_15h54.41.984,Visual Search,,2025.1.1,60.006792764778794,2025-09-30 15h54.51.931161 +0530,
119,0,119,[np.float64(0.09722222222222222)],[np.float64(0.43425925925925923)],[1],[0],[0],[1.2764613998588175],['target'],119,0,119,0,153.69203849998303,,5,153.68794329999946,153.69203849998303,153.69203849998303,0.011059899814426899,154.96451739990152,[np.float64(0.09722222222222222)],[np.float64(0.43425925925925923)],[1],[0],[0],[1.2764613998588175],['target'],4,001,2025-09-30_15h54.41.984,Visual Search,,2025.1.1,60.006792764778794,2025-09-30 15h54.51.931161 +0530,
120,0,120,[np.float64(-0.0787037037037037)],[np.float64(-0.1648148148148148)],[1],[0],[0],[1.1870881000068039],['target'],120,0,120,0,154.97926779999398,,5,154.9752187000122,154.97926779999398,154.97926779999398,0.01052240002900362,156.1624099998735,[np.float64(-0.0787037037037037)],[np.float64(-0.1648148148148148)],[1],[0],[0],[1.1870881000068039],['target'],4,001,2025-09-30_15h54.41.984,Visual Search,,2025.1.1,60.006792764778794,2025-09-30 15h54.51.931161 +0530,
121,0,121,[np.float64(0.23055555555555557)],[np.float64(0.06388888888888888)],[1],[0],[0],[1.3971581999212503],['target'],121,0,121,0,156.18396000005305,,10,156.17782839993015,156.18396000005305,156.18396000005305,0.015241999877616763,157.57517149997875,[np.float64(0.23055555555555557)],[np.float64(0.06388888888888888)],[1],[0],[0],[1.3971581999212503],['target'],4,001,2025-09-30_15h54.41.984,Visual Search,,2025.1.1,60.006792764778794,2025-09-30 15h54.51.931161 +0530,
122,0,122,[np.float64(-0.29074074074074074)],[np.float64(0.14537037037037037)],[1],[0],[0],[1.1176279000937939],[None],122,0,122,0,157.59933859994635,,10,157.59293609997258,157.59933859994635,157.59933859994635,0.01716900011524558,158.71066019986756,[np.float64(-0.29074074074074074)],[np.float64(0.14537037037037037)],[1],[0],[0],[1.1176279000937939],[None],4,001,2025-09-30_15h54.41.984,Visual Search,,2025.1.1,60.006792764778794,2025-09-30 15h54.51.931161 +0530,
123,0,123,[np.float64(-0.23981481481481481)],[np.float64(-0.49166666666666664)],[1],[0],[0],[1.3857829999178648],['target'],123,0,123,0,158.73159149987623,,10,158.7253417999018,158.73159149987623,158.73159149987623,0.01447529997676611,160.11121509992518,[np.float64(-0.23981481481481481)],[np.float64(-0.49166666666666664)],[1],[0],[0],[1.3857829999178648],['target'],4,001,2025-09-30_15h54.41.984,Visual Search,,2025.1.1,60.006792764778794,2025-09-30 15h54.51.931161 +0530,
124,0,124,[np.float64(0.4861111111111111)],[np.float64(0.05277777777777778)],[1],[0],[0],[1.4690706999972463],['target'],124,0,124,0,160.13265970000066,,10,160.1259027000051,160.13265970000066,160.13265970000066,0.014503000071272254,161.5950637999922,[np.float64(0.4861111111111111)],[np.float64(0.05277777777777778)],[1],[0],[0],[1.4690706999972463],['target'],4,001,2025-09-30_15h54.41.984,Visual Search,,2025.1.1,60.006792764778794,2025-09-30 15h54.51.931161 +0530,
125,0,125,[np.float64(0.07314814814814814)],[np.float64(0.18703703703703703)],[1],[0],[0],[1.130921000149101],[None],125,0,125,0,161.61647520004772,,10,161.60992880002595,161.61647520004772,161.61647520004772,0.014685099944472313,162.74099060008302,[np.float64(0.07314814814814814)],[np.float64(0.18703703703703703)],[1],[0],[0],[1.130921000149101],[None],4,001,2025-09-30_15h54.41.984,Visual Search,,2025.1.1,60.006792764778794,2025-09-30 15h54.51.931161 +0530,
126,0,126,[np.float64(0.3685185185185185)],[np.float64(-0.062037037037037036)],[1],[0],[0],[0.9686448001302779],[None],126,0,126,0,162.76457679993473,,10,162.75797889987007,162.76457679993473,162.76457679993473,0.01668259990401566,163.72670669993386,[np.float64(0.3685185185185185)],[np.float64(-0.062037037037037036)],[1],[0],[0],[0.9686448001302779],[None],4,001,2025-09-30_15h54.41.984,Visual Search,,2025.1.1,60.006792764778794,2025-09-30 15h54.51.931161 +0530,
127,0,127,[np.float64(0.13425925925925927)],[np.float64(-0.18611111111111112)],[1],[0],[0],[1.2106274999678135],['target'],127,0,127,0,163.7405649998691,,5,163.735398999881,163.7405649998691,163.7405649998691,0.008462100056931376,164.94612680003047,[np.float64(0.13425925925925927)],[np.float64(-0.18611111111111112)],[1],[0],[0],[1.2106274999678135],['target'],4,001,2025-09-30_15h54.41.984,Visual Search,,2025.1.1,60.006792764778794,2025-09-30 15h54.51.931161 +0530,
128,0,128,[np.float64(0.25462962962962965)],[np.float64(-0.044444444444444446)],[1],[0],[0],[1.0720263000112027],['target'],128,0,128,0,164.95986220007762,,5,164.95547769987024,164.95986220007762,164.95986220007762,0.009169600205495954,166.02760259993374,[np.float64(0.25462962962962965)],[np.float64(-0.044444444444444446)],[1],[0],[0],[1.0720263000112027],['target'],4,001,2025-09-30_15h54.41.984,Visual Search,,2025.1.1,60.006792764778794,2025-09-30 15h54.51.931161 +0530,
129,0,129,[np.float64(-0.03981481481481482)],[np.float64(-0.019444444444444445)],[1],[0],[0],[1.2505024999845773],['target'],129,0,129,0,166.05141309997998,,10,166.0440642000176,166.05141309997998,166.05141309997998,0.01629350008442998,167.29466750007123,[np.float64(-0.03981481481481482)],[np.float64(-0.019444444444444445)],[1],[0],[0],[1.2505024999845773],['target'],4,001,2025-09-30_15h54.41.984,Visual Search,,2025.1.1,60.006792764778794,2025-09-30 15h54.51.931161 +0530,
130,0,130,[np.float64(0.16111111111111112)],[np.float64(-0.07592592592592592)],[1],[0],[0],[1.167456999886781],[None],130,0,130,0,167.31681860005483,,10,167.31037559988908,167.31681860005483,167.31681860005483,0.015498099848628044,168.47794159990735,[np.float64(0.16111111111111112)],[np.float64(-0.07592592592592592)],[1],[0],[0],[1.167456999886781],[None],4,001,2025-09-30_15h54.41.984,Visual Search,,2025.1.1,60.006792764778794,2025-09-30 15h54.51.931161 +0530,
131,0,131,[np.float64(-0.08055555555555556)],[np.float64(-0.3194444444444444)],[1],[0],[0],[1.5698846001178026],[None],131,0,131,0,168.49272109987214,,5,168.48816689988598,168.49272109987214,168.49272109987214,0.010015500010922551,170.05811290000565,[np.float64(-0.08055555555555556)],[np.float64(-0.3194444444444444)],[1],[0],[0],[1.5698846001178026],[None],4,001,2025-09-30_15h54.41.984,Visual Search,,2025.1.1,60.006792764778794,2025-09-30 15h54.51.931161 +0530,
132,0,132,[np.float64(0.14722222222222223)],[np.float64(0.5)],[1],[0],[0],[1.6705219999421388],[None],132,0,132,0,170.0811644999776,,10,170.07266420009546,170.0811644999776,170.0811644999776,0.014449100010097027,171.74326370004565,[np.float64(0.14722222222222223)],[np.float64(0.5)],[1],[0],[0],[1.6705219999421388],[None],4,001,2025-09-30_15h54.41.984,Visual Search,,2025.1.1,60.006792764778794,2025-09-30 15h54.51.931161 +0530,
133,0,133,[np.float64(0.4527777777777778)],[np.float64(0.45092592592592595)],[1],[0],[0],[1.1275975999888033],['target'],133,0,133,0,171.7562265000306,,5,171.751706100069,171.7562265000306,171.7562265000306,0.008278199937194586,172.87938959989697,[np.float64(0.4527777777777778)],[np.float64(0.45092592592592595)],[1],[0],[0],[1.1275975999888033],['target'],4,001,2025-09-30_15h54.41.984,Visual Search,,2025.1.1,60.006792764778794,2025-09-30 15h54.51.931161 +0530,
134,0,134,[np.float64(0.14444444444444443)],[np.float64(-0.2574074074074074)],[1],[0],[0],[1.6970848999917507],['target'],134,0,134,0,172.9001668000128,,10,172.8939110999927,172.9001668000128,172.9001668000128,0.014376499922946095,174.59114550007507,[np.float64(0.14444444444444443)],[np.float64(-0.2574074074074074)],[1],[0],[0],[1.6970848999917507],['target'],4,001,2025-09-30_15h54.41.984,Visual Search,,2025.1.1,60.006792764778794,2025-09-30 15h54.51.931161 +0530,
135,0,135,[np.float64(0.2722222222222222)],[np.float64(-0.010185185185185186)],[1],[0],[0],[0.9228551001287997],['target'],135,0,135,0,174.60688690003008,,5,174.60212889988907,174.60688690003008,174.60688690003008,0.010652999859303236,175.52517049992457,[np.float64(0.2722222222222222)],[np.float64(-0.010185185185185186)],[1],[0],[0],[0.9228551001287997],['target'],4,001,2025-09-30_15h54.41.984,Visual Search,,2025.1.1,60.006792764778794,2025-09-30 15h54.51.931161 +0530,
136,0,136,[np.float64(-0.09444444444444444)],[np.float64(0.4388888888888889)],[1],[0],[0],[1.0390704998280853],['target'],136,0,136,0,175.54115310008638,,5,175.53642080002464,175.54115310008638,175.54115310008638,0.010829600039869547,176.57557659992017,[np.float64(-0.09444444444444444)],[np.float64(0.4388888888888889)],[1],[0],[0],[1.0390704998280853],['target'],4,001,2025-09-30_15h54.41.984,Visual Search,,2025.1.1,60.006792764778794,2025-09-30 15h54.51.931161 +0530,
137,0,137,[np.float64(0.2212962962962963)],[np.float64(0.43425925925925923)],[1],[0],[0],[1.3103050999343395],['target'],137,0,137,0,176.58848590007983,,5,176.58321990002878,176.58848590007983,176.58848590007983,0.007496099919080734,177.89360750000924,[np.float64(0.2212962962962963)],[np.float64(0.43425925925925923)],[1],[0],[0],[1.3103050999343395],['target'],4,001,2025-09-30_15h54.41.984,Visual Search,,2025.1.1,60.006792764778794,2025-09-30 15h54.51.931161 +0530,
138,0,138,[np.float64(-0.21296296296296297)],[np.float64(-0.018518518518518517)],[1],[0],[0],[1.2154041999019682],['target'],138,0,138,0,177.9183932999149,,10,177.9121284999419,177.9183932999149,177.9183932999149,0.018371399957686663,179.12763089989312,[np.float64(-0.21296296296296297)],[np.float64(-0.018518518518518517)],[1],[0],[0],[1.2154041999019682],['target'],4,001,2025-09-30_15h54.41.984,Visual Search,,2025.1.1,60.006792764778794,2025-09-30 15h54.51.931161 +0530,
139,0,139,[np.float64(-0.04722222222222222)],[np.float64(0.31666666666666665)],[1],[0],[0],[1.1634432000573725],['target'],139,0,139,0,179.15010150009766,,10,179.143432199955,179.15010150009766,179.15010150009766,0.01560729998163879,180.3069937999826,[np.float64(-0.04722222222222222)],[np.float64(0.31666666666666665)],[1],[0],[0],[1.1634432000573725],['target'],4,001,2025-09-30_15h54.41.984,Visual Search,,2025.1.1,60.006792764778794,2025-09-30 15h54.51.931161 +0530,
140,0,140,[np.float64(0.1814814814814815)],[np.float64(-0.027777777777777776)],[1],[0],[0],[1.128369899932295],['target'],140,0,140,0,180.32180149992928,,5,180.31693849992007,180.32180149992928,180.32180149992928,0.009676999878138304,181.44540599989705,[np.float64(0.1814814814814815)],[np.float64(-0.027777777777777776)],[1],[0],[0],[1.128369899932295],['target'],4,001,2025-09-30_15h54.41.984,Visual Search,,2025.1.1,60.006792764778794,2025-09-30 15h54.51.931161 +0530,
141,0,141,[np.float64(0.16574074074074074)],[np.float64(-0.3768518518518518)],[1],[0],[0],[1.7879832999315113],[None],141,0,141,0,181.4606906999834,,5,181.4556793998927,181.4606906999834,181.4606906999834,0.010112999938428402,183.24376119999215,[np.float64(0.16574074074074074)],[np.float64(-0.3768518518518518)],[1],[0],[0],[1.7879832999315113],[None],4,001,2025-09-30_15h54.41.984,Visual Search,,2025.1.1,60.006792764778794,2025-09-30 15h54.51.931161 +0530,
142,0,142,[np.float64(0.12314814814814815)],[np.float64(0.4185185185185185)],[1],[0],[0],[1.2004162999801338],['target'],142,0,142,0,183.2666567999404,,10,183.26005139993504,183.2666567999404,183.2666567999404,0.016124599846079946,184.4605815000832,[np.float64(0.12314814814814815)],[np.float64(0.4185185185185185)],[1],[0],[0],[1.2004162999801338],['target'],4,001,2025-09-30_15h54.41.984,Visual Search,,2025.1.1,60.006792764778794,2025-09-30 15h54.51.931161 +0530,
143,0,143,[np.float64(-0.4083333333333333)],[np.float64(0.3787037037037037)],[1],[0],[0],[1.2251051000785083],['target'],143,0,143,0,184.47405730001628,,5,184.4698892000597,184.47405730001628,184.47405730001628,0.00908489990979433,185.69508669991046,[np.float64(-0.4083333333333333)],[np.float64(0.3787037037037037)],[1],[0],[0],[1.2251051000785083],['target'],4,001,2025-09-30_15h54.41.984,Visual Search,,2025.1.1,60.006792764778794,2025-09-30 15h54.51.931161 +0530,
144,0,144,[np.float64(-0.44537037037037036)],[np.float64(-0.13240740740740742)],[1],[0],[0],[1.6399793999735266],['target'],144,0,144,0,185.70935550006106,,5,185.70359000004828,185.70935550006106,185.70935550006106,0.008359899977222085,187.34367850003764,[np.float64(-0.44537037037037036)],[np.float64(-0.13240740740740742)],[1],[0],[0],[1.6399793999735266],['target'],4,001,2025-09-30_15h54.41.984,Visual Search,,2025.1.1,60.006792764778794,2025-09-30 15h54.51.931161 +0530,
145,0,145,[np.float64(0.0962962962962963)],[np.float64(-0.38425925925925924)],[1],[0],[0],[1.1592266000807285],['target'],145,0,145,0,187.35841439990327,,5,187.35411359998398,187.35841439990327,187.35841439990327,0.01024680002592504,188.51345329987817,[np.float64(0.0962962962962963)],[np.float64(-0.38425925925925924)],[1],[0],[0],[1.1592266000807285],['target'],4,001,2025-09-30_15h54.41.984,Visual Search,,2025.1.1,60.006792764778794,2025-09-30 15h54.51.931161 +0530,
146,0,146,[np.float64(-0.10740740740740741)],[np.float64(-0.3175925925925926)],[1],[0],[0],[1.0649190999101847],['target'],146,0,146,0,188.52985100005753,,5,188.52512939996086,188.52985100005753,188.52985100005753,0.011495399987325072,189.59014629991725,[np.float64(-0.10740740740740741)],[np.float64(-0.3175925925925926)],[1],[0],[0],[1.0649190999101847],['target'],4,001,2025-09-30_15h54.41.984,Visual Search,,2025.1.1,60.006792764778794,2025-09-30 15h54.51.931161 +0530,
147,0,147,[np.float64(-0.4083333333333333)],[np.float64(-0.24074074074074073)],[1],[0],[0],[1.2347909999080002],['target'],147,0,147,0,189.61201819987036,,10,189.60570660000667,189.61201819987036,189.61201819987036,0.015390299959108233,190.84065759996884,[np.float64(-0.4083333333333333)],[np.float64(-0.24074074074074073)],[1],[0],[0],[1.2347909999080002],['target'],4,001,2025-09-30_15h54.41.984,Visual Search,,2025.1.1,60.006792764778794,2025-09-30 15h54.51.931161 +0530,
148,0,148,[np.float64(0.24351851851851852)],[np.float64(-0.22314814814814815)],[1],[0],[0],[1.0871629999019206],['target'],148,0,148,0,190.86403180006891,,10,190.85711460001767,190.86403180006891,190.86403180006891,0.0162514999974519,191.9443739000708,[np.float64(0.24351851851851852)],[np.float64(-0.22314814814814815)],[1],[0],[0],[1.0871629999019206],['target'],4,001,2025-09-30_15h54.41.984,Visual Search,,2025.1.1,60.006792764778794,2025-09-30 15h54.51.931161 +0530,
149,0,149,[np.float64(0.36574074074074076)],[np.float64(0.31203703703703706)],[1],[0],[0],[1.247046299977228],[None],149,0,149,0,191.96737669990398,,10,191.96028740005568,191.96737669990398,191.96737669990398,0.015715799992904067,193.2074309999589,[np.float64(0.36574074074074076)],[np.float64(0.31203703703703706)],[1],[0],[0],[1.247046299977228],[None],4,001,2025-09-30_15h54.41.984,Visual Search,,2025.1.1,60.006792764778794,2025-09-30 15h54.51.931161 +0530,
150,0,150,[np.float64(-0.2537037037037037)],[np.float64(-0.4824074074074074)],[1],[0],[0],[1.5507695998530835],['target'],150,0,150,0,193.22928850003518,,10,193.2228480000049,193.22928850003518,193.22928850003518,0.015209099976345897,194.77373589994386,[np.float64(-0.2537037037037037)],[np.float64(-0.4824074074074074)],[1],[0],[0],[1.5507695998530835],['target'],4,001,2025-09-30_15h54.41.984,Visual Search,,2025.1.1,60.006792764778794,2025-09-30 15h54.51.931161 +0530,
151,0,151,[np.float64(0.10555555555555556)],[np.float64(0.08518518518518518)],[1],[0],[0],[1.8155479999259114],['target'],151,0,151,0,194.7976728999056,,10,194.79090950009413,194.7976728999056,194.7976728999056,0.016932500060647726,196.60663859988563,[np.float64(0.10555555555555556)],[np.float64(0.08518518518518518)],[1],[0],[0],[1.8155479999259114],['target'],4,001,2025-09-30_15h54.41.984,Visual Search,,2025.1.1,60.006792764778794,2025-09-30 15h54.51.931161 +0530,
152,0,152,[np.float64(-0.45)],[np.float64(0.05)],[1],[0],[0],[1.3257806999608874],['target'],152,0,152,0,196.62724629999138,,10,196.62065430008806,196.62724629999138,196.62724629999138,0.013848500093445182,197.9465381000191,[np.float64(-0.45)],[np.float64(0.05)],[1],[0],[0],[1.3257806999608874],['target'],4,001,2025-09-30_15h54.41.984,Visual Search,,2025.1.1,60.006792764778794,2025-09-30 15h54.51.931161 +0530,
153,0,153,[np.float64(0.37407407407407406)],[np.float64(-0.018518518518518517)],[1],[0],[0],[1.3993128000292927],[None],153,0,153,0,197.96830249996856,,10,197.96193649992347,197.96830249996856,197.96830249996856,0.01519939978606999,199.3613424000796,[np.float64(0.37407407407407406)],[np.float64(-0.018518518518518517)],[1],[0],[0],[1.3993128000292927],[None],4,001,2025-09-30_15h54.41.984,Visual Search,,2025.1.1,60.006792764778794,2025-09-30 15h54.51.931161 +0530,
154,0,154,[np.float64(-0.27314814814814814)],[np.float64(-0.027777777777777776)],[1],[0],[0],[1.0566879999823868],[None],154,0,154,0,199.37633979995735,,5,199.37138419994153,199.37633979995735,199.37633979995735,0.00986139988526702,200.42819039989263,[np.float64(-0.27314814814814814)],[np.float64(-0.027777777777777776)],[1],[0],[0],[1.0566879999823868],[None],4,001,2025-09-30_15h54.41.984,Visual Search,,2025.1.1,60.006792764778794,2025-09-30 15h54.51.931161 +0530,
155,0,155,[np.float64(-0.022222222222222223)],[np.float64(-0.30185185185185187)],[1],[0],[0],[1.138099499978125],['target'],155,0,155,0,200.4446071998682,,5,200.44022300001234,200.4446071998682,200.4446071998682,0.011852300027385354,201.5784471000079,[np.float64(-0.022222222222222223)],[np.float64(-0.30185185185185187)],[1],[0],[0],[1.138099499978125],['target'],4,001,2025-09-30_15h54.41.984,Visual Search,,2025.1.1,60.006792764778794,2025-09-30 15h54.51.931161 +0530,
156,0,156,[np.float64(0.13796296296296295)],[np.float64(0.4675925925925926)],[1],[0],[0],[1.5543879999313504],['target'],156,0,156,0,201.59358109999448,,5,201.58886280003935,201.59358109999448,201.59358109999448,0.010238199960440397,203.14337639999576,[np.float64(0.13796296296296295)],[np.float64(0.4675925925925926)],[1],[0],[0],[1.5543879999313504],['target'],4,001,2025-09-30_15h54.41.984,Visual Search,,2025.1.1,60.006792764778794,2025-09-30 15h54.51.931161 +0530,
157,0,157,[np.float64(-0.3851851851851852)],[np.float64(-0.2101851851851852)],[1],[0],[0],[0.987290000077337],[None],157,0,157,0,203.1575189998839,,5,203.15305770002306,203.1575189998839,203.1575189998839,0.009500300046056509,204.140494100051,[np.float64(-0.3851851851851852)],[np.float64(-0.2101851851851852)],[1],[0],[0],[0.987290000077337],[None],4,001,2025-09-30_15h54.41.984,Visual Search,,2025.1.1,60.006792764778794,2025-09-30 15h54.51.931161 +0530,
158,0,158,[np.float64(-0.40555555555555556)],[np.float64(-0.175)],[1],[0],[0],[1.086204000050202],['target'],158,0,158,0,204.16297880001366,,10,204.15645930008031,204.16297880001366,204.16297880001366,0.015758100198581815,205.24275929993019,[np.float64(-0.40555555555555556)],[np.float64(-0.175)],[1],[0],[0],[1.086204000050202],['target'],4,001,2025-09-30_15h54.41.984,Visual Search,,2025.1.1,60.006792764778794,2025-09-30 15h54.51.931161 +0530,
159,0,159,[np.float64(-0.44814814814814813)],[np.float64(0.012962962962962963)],[1],[0],[0],[1.142676099902019],['target'],159,0,159,0,205.25650190003216,,5,205.25173210003413,205.25650190003216,205.25650190003216,0.008777100127190351,206.39450659998693,[np.float64(-0.44814814814814813)],[np.float64(0.012962962962962963)],[1],[0],[0],[1.142676099902019],['target'],4,001,2025-09-30_15h54.41.984,Visual Search,,2025.1.1,60.006792764778794,2025-09-30 15h54.51.931161 +0530,
160,0,160,[np.float64(-0.22037037037037038)],[np.float64(0.041666666666666664)],[1],[0],[0],[1.0842128000222147],['target'],160,0,160,0,206.41753820003942,,10,206.41104590008035,206.41753820003942,206.41753820003942,0.01637009996920824,207.49535889993422,[np.float64(-0.22037037037037038)],[np.float64(0.041666666666666664)],[1],[0],[0],[1.0842128000222147],['target'],4,001,2025-09-30_15h54.41.984,Visual Search,,2025.1.1,60.006792764778794,2025-09-30 15h54.51.931161 +0530,
161,0,161,[np.float64(0.25833333333333336)],[np.float64(-0.37777777777777777)],[1],[0],[0],[1.1955331000499427],[None],161,0,161,0,207.51731460005976,,10,207.51120200008154,207.51731460005976,207.51731460005976,0.015638799872249365,208.70686689997092,[np.float64(0.25833333333333336)],[np.float64(-0.37777777777777777)],[1],[0],[0],[1.1955331000499427],[None],4,001,2025-09-30_15h54.41.984,Visual Search,,2025.1.1,60.006792764778794,2025-09-30 15h54.51.931161 +0530,
162,0,162,[np.float64(0.21481481481481482)],[np.float64(-0.020370370370370372)],[1],[0],[0],[1.0602202001027763],['target'],162,0,162,0,208.72140559996478,,5,208.71689809998497,208.72140559996478,208.72140559996478,0.009784899884834886,209.77721609990112,[np.float64(0.21481481481481482)],[np.float64(-0.020370370370370372)],[1],[0],[0],[1.0602202001027763],['target'],4,001,2025-09-30_15h54.41.984,Visual Search,,2025.1.1,60.006792764778794,2025-09-30 15h54.51.931161 +0530,
163,0,163,[np.float64(0.19537037037037036)],[np.float64(0.09259259259259259)],[1],[0],[0],[0.9282594998367131],['target'],163,0,163,0,209.80084959999658,,10,209.79450220009312,209.80084959999658,209.80084959999658,0.017042299965396523,210.72286899993196,[np.float64(0.19537037037037036)],[np.float64(0.09259259259259259)],[1],[0],[0],[0.9282594998367131],['target'],4,001,2025-09-30_15h54.41.984,Visual Search,,2025.1.1,60.006792764778794,2025-09-30 15h54.51.931161 +0530,
164,0,164,[np.float64(-0.041666666666666664)],[np.float64(-0.37407407407407406)],[1],[0],[0],[1.2337231000419706],[None],164,0,164,0,210.74537959997542,,10,210.73914349987172,210.74537959997542,210.74537959997542,0.016061399830505252,211.97297009988688,[np.float64(-0.041666666666666664)],[np.float64(-0.37407407407407406)],[1],[0],[0],[1.2337231000419706],[None],4,001,2025-09-30_15h54.41.984,Visual Search,,2025.1.1,60.006792764778794,2025-09-30 15h54.51.931161 +0530,
165,0,165,[np.float64(-0.2564814814814815)],[np.float64(-0.3712962962962963)],[1],[0],[0],[1.1752426999155432],['target'],165,0,165,0,211.99450449994765,,10,211.9879528998863,211.99450449994765,211.99450449994765,0.014769700122997165,213.16329799988307,[np.float64(-0.2564814814814815)],[np.float64(-0.3712962962962963)],[1],[0],[0],[1.1752426999155432],['target'],4,001,2025-09-30_15h54.41.984,Visual Search,,2025.1.1,60.006792764778794,2025-09-30 15h54.51.931161 +0530,
166,0,166,[np.float64(0.44351851851851853)],[np.float64(0.06944444444444445)],[1],[0],[0],[1.0859034999739379],[None],166,0,166,0,213.17819219990633,,5,213.17420320003293,213.17819219990633,213.17819219990633,0.010724500054493546,214.2602011000272,[np.float64(0.44351851851851853)],[np.float64(0.06944444444444445)],[1],[0],[0],[1.0859034999739379],[None],4,001,2025-09-30_15h54.41.984,Visual Search,,2025.1.1,60.006792764778794,2025-09-30 15h54.51.931161 +0530,
167,0,167,[np.float64(-0.03148148148148148)],[np.float64(0.30092592592592593)],[1],[0],[0],[1.0365025999490172],['target'],167,0,167,0,214.2747754000593,,5,214.26992990006693,214.2747754000593,214.2747754000593,0.009570300113409758,215.30653499998152,[np.float64(-0.03148148148148148)],[np.float64(0.30092592592592593)],[1],[0],[0],[1.0365025999490172],['target'],4,001,2025-09-30_15h54.41.984,Visual Search,,2025.1.1,60.006792764778794,2025-09-30 15h54.51.931161 +0530,
168,0,168,[np.float64(0.3787037037037037)],[np.float64(-0.38981481481481484)],[1],[0],[0],[1.4398807000834495],[None],168,0,168,0,215.32503390009515,,5,215.32092870003544,215.32503390009515,215.32503390009515,0.01422070013359189,216.76092300005257,[np.float64(0.3787037037037037)],[np.float64(-0.38981481481481484)],[1],[0],[0],[1.4398807000834495],[None],4,001,2025-09-30_15h54.41.984,Visual Search,,2025.1.1,60.006792764778794,2025-09-30 15h54.51.931161 +0530,
169,0,169,[np.float64(0.21574074074074073)],[np.float64(0.5)],[1],[0],[0],[1.7696223000530154],[None],169,0,169,0,216.777439000085,,5,216.7726423998829,216.777439000085,216.777439000085,0.011441200040280819,218.54233470000327,[np.float64(0.21574074074074073)],[np.float64(0.5)],[1],[0],[0],[1.7696223000530154],[None],4,001,2025-09-30_15h54.41.984,Visual Search,,2025.1.1,60.006792764778794,2025-09-30 15h54.51.931161 +0530,
170,0,170,[np.float64(0.35648148148148145)],[np.float64(0.45555555555555555)],[1],[0],[0],[1.6321501999627799],[None],170,0,170,0,218.56663089990616,,10,218.56002620002255,218.56663089990616,218.56663089990616,0.017568800132721663,220.19224860006943,[np.float64(0.35648148148148145)],[np.float64(0.45555555555555555)],[1],[0],[0],[1.6321501999627799],[None],4,001,2025-09-30_15h54.41.984,Visual Search,,2025.1.1,60.006792764778794,2025-09-30 15h54.51.931161 +0530,
171,0,171,[np.float64(0.06851851851851852)],[np.float64(0.14814814814814814)],[1],[0],[0],[1.3002245998941362],['target'],171,0,171,0,220.21281099994667,,10,220.20656670001335,220.21281099994667,220.21281099994667,0.014174200128763914,221.50691380002536,[np.float64(0.06851851851851852)],[np.float64(0.14814814814814814)],[1],[0],[0],[1.3002245998941362],['target'],4,001,2025-09-30_15h54.41.984,Visual Search,,2025.1.1,60.006792764778794,2025-09-30 15h54.51.931161 +0530,
172,0,172,[np.float64(0.39814814814814814)],[np.float64(0.32222222222222224)],[1],[0],[0],[1.3070216001942754],['target'],172,0,172,0,221.52147720009089,,5,221.51679900009185,221.52147720009089,221.52147720009089,0.009648900013417006,222.82398419990204,[np.float64(0.39814814814814814)],[np.float64(0.32222222222222224)],[1],[0],[0],[1.3070216001942754],['target'],4,001,2025-09-30_15h54.41.984,Visual Search,,2025.1.1,60.006792764778794,2025-09-30 15h54.51.931161 +0530,
173,0,173,[np.float64(0.06759259259259259)],[np.float64(-0.3212962962962963)],[1],[0],[0],[1.0547962000127882],[None],173,0,173,0,222.84010359994136,,5,222.8351255999878,222.84010359994136,222.84010359994136,0.01091210008598864,223.89004749991,[np.float64(0.06759259259259259)],[np.float64(-0.3212962962962963)],[1],[0],[0],[1.0547962000127882],[None],4,001,2025-09-30_15h54.41.984,Visual Search,,2025.1.1,60.006792764778794,2025-09-30 15h54.51.931161 +0530,
174,0,174,[np.float64(0.12314814814814815)],[np.float64(0.3861111111111111)],[1],[0],[0],[2.0524037000723183],[None],174,0,174,0,223.91377260000445,,10,223.90770830004476,223.91377260000445,223.91377260000445,0.017466000048443675,225.960223400034,[np.float64(0.12314814814814815)],[np.float64(0.3861111111111111)],[1],[0],[0],[2.0524037000723183],[None],4,001,2025-09-30_15h54.41.984,Visual Search,,2025.1.1,60.006792764778794,2025-09-30 15h54.51.931161 +0530,
175,0,175,[np.float64(-0.4425925925925926)],[np.float64(-0.30277777777777776)],[1],[0],[0],[1.3150584001559764],['target'],175,0,175,0,225.98338270001113,,10,225.9770669999998,225.98338270001113,225.98338270001113,0.016642400063574314,227.29220020002685,[np.float64(-0.4425925925925926)],[np.float64(-0.30277777777777776)],[1],[0],[0],[1.3150584001559764],['target'],4,001,2025-09-30_15h54.41.984,Visual Search,,2025.1.1,60.006792764778794,2025-09-30 15h54.51.931161 +0530,
176,0,176,[np.float64(0.12407407407407407)],[np.float64(-0.35462962962962963)],[1],[0],[0],[1.1458806002046913],['target'],176,0,176,0,227.30530710006133,,5,227.30041659995914,227.30530710006133,227.30530710006133,0.008070499869063497,228.4464183000382,[np.float64(0.12407407407407407)],[np.float64(-0.35462962962962963)],[1],[0],[0],[1.1458806002046913],['target'],4,001,2025-09-30_15h54.41.984,Visual Search,,2025.1.1,60.006792764778794,2025-09-30 15h54.51.931161 +0530,
177,0,177,[np.float64(0.20277777777777778)],[np.float64(0.4222222222222222)],[1],[0],[0],[1.2667388000991195],['target'],177,0,177,0,228.4604918998666,,5,228.45613519987091,228.4604918998666,228.4604918998666,0.00947909988462925,229.72297900007106,[np.float64(0.20277777777777778)],[np.float64(0.4222222222222222)],[1],[0],[0],[1.2667388000991195],['target'],4,001,2025-09-30_15h54.41.984,Visual Search,,2025.1.1,60.006792764778794,2025-09-30 15h54.51.931161 +0530,
178,0,178,[np.float64(0.12129629629629629)],[np.float64(0.08333333333333333)],[1],[0],[0],[1.203630100004375],['target'],178,0,178,0,229.748106099898,,10,229.74146110005677,229.748106099898,229.748106099898,0.018317699898034334,230.9452142000664,[np.float64(0.12129629629629629)],[np.float64(0.08333333333333333)],[1],[0],[0],[1.203630100004375],['target'],4,001,2025-09-30_15h54.41.984,Visual Search,,2025.1.1,60.006792764778794,2025-09-30 15h54.51.931161 +0530,
179,0,179,[np.float64(0.4425925925925926)],[np.float64(0.46111111111111114)],[1],[0],[0],[1.1513341998215765],['target'],179,0,179,0,230.9594908999279,,5,230.95539069990627,230.9594908999279,230.9594908999279,0.009936599992215633,232.1068412999157,[np.float64(0.4425925925925926)],[np.float64(0.46111111111111114)],[1],[0],[0],[1.1513341998215765],['target'],4,001,2025-09-30_15h54.41.984,Visual Search,,2025.1.1,60.006792764778794,2025-09-30 15h54.51.931161 +0530,
180,0,180,[np.float64(-0.13333333333333333)],[np.float64(-0.2037037037037037)],[1],[0],[0],[1.1235992999281734],['target'],180,0,180,0,232.12106349994428,,5,232.1168698000256,232.12106349994428,232.12106349994428,0.009831300005316734,233.2406278999988,[np.float64(-0.13333333333333333)],[np.float64(-0.2037037037037037)],[1],[0],[0],[1.1235992999281734],['target'],4,001,2025-09-30_15h54.41.984,Visual Search,,2025.1.1,60.006792764778794,2025-09-30 15h54.51.931161 +0530,
181,0,181,[np.float64(-0.25462962962962965)],[np.float64(0.43333333333333335)],[1],[0],[0],[1.7697741999290884],[None],181,0,181,0,233.26357319997624,,10,233.25753089995123,233.26357319997624,233.26357319997624,0.01665910007432103,235.02739969990216,[np.float64(-0.25462962962962965)],[np.float64(0.43333333333333335)],[1],[0],[0],[1.7697741999290884],[None],4,001,2025-09-30_15h54.41.984,Visual Search,,2025.1.1,60.006792764778794,2025-09-30 15h54.51.931161 +0530,
182,0,182,[np.float64(-0.39351851851851855)],[np.float64(0.23981481481481481)],[1],[0],[0],[1.2020551001187414],['target'],182,0,182,0,235.04966669995338,,10,235.04332390008494,235.04966669995338,235.04966669995338,0.015738599933683872,236.24548979988322,[np.float64(-0.39351851851851855)],[np.float64(0.23981481481481481)],[1],[0],[0],[1.2020551001187414],['target'],4,001,2025-09-30_15h54.41.984,Visual Search,,2025.1.1,60.006792764778794,2025-09-30 15h54.51.931161 +0530,
183,0,183,[np.float64(0.005555555555555556)],[np.float64(-0.27870370370370373)],[1],[0],[0],[1.2825269000604749],['target'],183,0,183,0,236.26739909988828,,10,236.26117630000226,236.26739909988828,236.26739909988828,0.015465299831703305,237.54380049998872,[np.float64(0.005555555555555556)],[np.float64(-0.27870370370370373)],[1],[0],[0],[1.2825269000604749],['target'],4,001,2025-09-30_15h54.41.984,Visual Search,,2025.1.1,60.006792764778794,2025-09-30 15h54.51.931161 +0530,
184,0,184,[np.float64(0.49444444444444446)],[np.float64(-0.026851851851851852)],[1],[0],[0],[1.340361300157383],['target'],184,0,184,0,237.55791329988278,,5,237.5535641000606,237.55791329988278,237.55791329988278,0.009568399982526898,238.8940411999356,[np.float64(0.49444444444444446)],[np.float64(-0.026851851851851852)],[1],[0],[0],[1.340361300157383],['target'],4,001,2025-09-30_15h54.41.984,Visual Search,,2025.1.1,60.006792764778794,2025-09-30 15h54.51.931161 +0530,
185,0,185,[np.float64(0.10925925925925926)],[np.float64(0.4777777777777778)],[1],[0],[0],[1.2302353999111801],[None],185,0,185,0,238.92081589996815,,10,238.91426729992963,238.92081589996815,238.92081589996815,0.02002090006135404,240.14461080008186,[np.float64(0.10925925925925926)],[np.float64(0.4777777777777778)],[1],[0],[0],[1.2302353999111801],[None],4,001,2025-09-30_15h54.41.984,Visual Search,,2025.1.1,60.006792764778794,2025-09-30 15h54.51.931161 +0530,
186,0,186,[np.float64(-0.03425925925925926)],[np.float64(0.31574074074074077)],[1],[0],[0],[1.11951470002532],[None],186,0,186,0,240.16586069995537,,10,240.15970079996623,240.16586069995537,240.16586069995537,0.014886800199747086,241.27932179998606,[np.float64(-0.03425925925925926)],[np.float64(0.31574074074074077)],[1],[0],[0],[1.11951470002532],[None],4,001,2025-09-30_15h54.41.984,Visual Search,,2025.1.1,60.006792764778794,2025-09-30 15h54.51.931161 +0530,
187,0,187,[np.float64(0.05)],[np.float64(-0.17592592592592593)],[1],[0],[0],[1.211430200142786],[None],187,0,187,0,241.30142570007592,,10,241.29483889997937,241.30142570007592,241.30142570007592,0.01530840015038848,242.5063660000451,[np.float64(0.05)],[np.float64(-0.17592592592592593)],[1],[0],[0],[1.211430200142786],[None],4,001,2025-09-30_15h54.41.984,Visual Search,,2025.1.1,60.006792764778794,2025-09-30 15h54.51.931161 +0530,
188,0,188,[np.float64(-0.4361111111111111)],[np.float64(-0.1925925925925926)],[1],[0],[0],[1.691348799970001],['target'],188,0,188,0,242.5214231000282,,5,242.51533490000293,242.5214231000282,242.5214231000282,0.008784699952229857,244.20681559992954,[np.float64(-0.4361111111111111)],[np.float64(-0.1925925925925926)],[1],[0],[0],[1.691348799970001],['target'],4,001,2025-09-30_15h54.41.984,Visual Search,,2025.1.1,60.006792764778794,2025-09-30 15h54.51.931161 +0530,
189,0,189,[np.float64(-0.14537037037037037)],[np.float64(-0.05462962962962963)],[1],[0],[0],[1.2869234001263976],['target'],189,0,189,0,244.2301385998726,,10,244.22380789997987,244.2301385998726,244.2301385998726,0.016732600051909685,245.51083660009317,[np.float64(-0.14537037037037037)],[np.float64(-0.05462962962962963)],[1],[0],[0],[1.2869234001263976],['target'],4,001,2025-09-30_15h54.41.984,Visual Search,,2025.1.1,60.006792764778794,2025-09-30 15h54.51.931161 +0530,
190,0,190,[np.float64(0.10648148148148148)],[np.float64(-0.2851851851851852)],[1],[0],[0],[1.120246399892494],['target'],190,0,190,0,245.52711750008166,,5,245.52273129997775,245.52711750008166,245.52711750008166,0.01168969995342195,246.64306959998794,[np.float64(0.10648148148148148)],[np.float64(-0.2851851851851852)],[1],[0],[0],[1.120246399892494],['target'],4,001,2025-09-30_15h54.41.984,Visual Search,,2025.1.1,60.006792764778794,2025-09-30 15h54.51.931161 +0530,
191,0,191,[np.float64(0.3175925925925926)],[np.float64(0.4305555555555556)],[1],[0],[0],[1.1166167999617755],['target'],191,0,191,0,246.6652885999065,,10,246.65947839990258,246.6652885999065,246.6652885999065,0.016255100024864078,247.77619259990752,[np.float64(0.3175925925925926)],[np.float64(0.4305555555555556)],[1],[0],[0],[1.1166167999617755],['target'],4,001,2025-09-30_15h54.41.984,Visual Search,,2025.1.1,60.006792764778794,2025-09-30 15h54.51.931161 +0530,
192,0,192,[np.float64(-0.28888888888888886)],[np.float64(-0.17962962962962964)],[1],[0],[0],[1.1671066998969764],['target'],192,0,192,0,247.80052640009671,,10,247.79452720005065,247.80052640009671,247.80052640009671,0.018146099988371134,248.9617415999528,[np.float64(-0.28888888888888886)],[np.float64(-0.17962962962962964)],[1],[0],[0],[1.1671066998969764],['target'],4,001,2025-09-30_15h54.41.984,Visual Search,,2025.1.1,60.006792764778794,2025-09-30 15h54.51.931161 +0530,
193,0,193,[np.float64(0.22962962962962963)],[np.float64(-0.22962962962962963)],[1],[0],[0],[1.203916999977082],[None],193,0,193,0,248.97713649994694,,5,248.97306829993613,248.97713649994694,248.97713649994694,0.011115999892354012,250.1770957999397,[np.float64(0.22962962962962963)],[np.float64(-0.22962962962962963)],[1],[0],[0],[1.203916999977082],[None],4,001,2025-09-30_15h54.41.984,Visual Search,,2025.1.1,60.006792764778794,2025-09-30 15h54.51.931161 +0530,
194,0,194,[np.float64(-0.4064814814814815)],[np.float64(0.3824074074074074)],[1],[0],[0],[1.2214126999024302],['target'],194,0,194,0,250.19257299997844,,5,250.1878448999487,250.19257299997844,250.19257299997844,0.01055960007943213,251.40935950004496,[np.float64(-0.4064814814814815)],[np.float64(0.3824074074074074)],[1],[0],[0],[1.2214126999024302],['target'],4,001,2025-09-30_15h54.41.984,Visual Search,,2025.1.1,60.006792764778794,2025-09-30 15h54.51.931161 +0530,
195,0,195,[np.float64(0.40185185185185185)],[np.float64(-0.24722222222222223)],[1],[0],[0],[1.2763175999280065],['target'],195,0,195,0,251.42229670006782,,5,251.41824620007537,251.42229670006782,251.42229670006782,0.008724800078198314,252.6946622999385,[np.float64(0.40185185185185185)],[np.float64(-0.24722222222222223)],[1],[0],[0],[1.2763175999280065],['target'],4,001,2025-09-30_15h54.41.984,Visual Search,,2025.1.1,60.006792764778794,2025-09-30 15h54.51.931161 +0530,
196,0,196,[np.float64(0.49444444444444446)],[np.float64(-0.3194444444444444)],[1],[0],[0],[1.7666539999190718],['target'],196,0,196,0,252.715118000051,,10,252.70907690003514,252.715118000051,252.715118000051,0.014274699846282601,254.4758121999912,[np.float64(0.49444444444444446)],[np.float64(-0.3194444444444444)],[1],[0],[0],[1.7666539999190718],['target'],4,001,2025-09-30_15h54.41.984,Visual Search,,2025.1.1,60.006792764778794,2025-09-30 15h54.51.931161 +0530,
197,0,197,[np.float64(0.35)],[np.float64(-0.39537037037037037)],[1],[0],[0],[1.570076199946925],['target'],197,0,197,0,254.49621160002425,,10,254.4901975998655,254.49621160002425,254.49621160002425,0.014218300115317106,256.06037369999103,[np.float64(0.35)],[np.float64(-0.39537037037037037)],[1],[0],[0],[1.570076199946925],['target'],4,001,2025-09-30_15h54.41.984,Visual Search,,2025.1.1,60.006792764778794,2025-09-30 15h54.51.931161 +0530,
198,0,198,[np.float64(0.14629629629629629)],[np.float64(-0.11574074074074074)],[1],[0],[0],[1.0873035001568496],['target'],198,0,198,0,256.07427029986866,,5,256.06994910002686,256.07427029986866,256.07427029986866,0.009389200014993548,257.15748560009524,[np.float64(0.14629629629629629)],[np.float64(-0.11574074074074074)],[1],[0],[0],[1.0873035001568496],['target'],4,001,2025-09-30_15h54.41.984,Visual Search,,2025.1.1,60.006792764778794,2025-09-30 15h54.51.931161 +0530,
199,0,199,[np.float64(0.027777777777777776)],[np.float64(-0.22870370370370371)],[1],[0],[0],[1.1580495999660343],[None],199,0,199,0,257.1744987000711,,5,257.1698785999324,257.1744987000711,257.1744987000711,0.012093299999833107,258.32803089986555,[np.float64(0.027777777777777776)],[np.float64(-0.22870370370370371)],[1],[0],[0],[1.1580495999660343],[None],4,001,2025-09-30_15h54.41.984,Visual Search,,2025.1.1,60.006792764778794,2025-09-30 15h54.51.931161 +0530,
