pos,corr_resp,thisN,thisTrialN,thisRepN,kev_resp.kevs,kev_resp.corr,kev_resp.rt,kev_resp.duration,trials.thisRepN,trials.thisTrialN,trials.thisN,trials.thisIndex,trials_2.thisRepN,trials_2.thisTrialN,trials_2.thisN,trials_2.thisIndex,thisRow.t,notes,trial.started,Fixation.started,line1.started,line2.started,line3.started,line4.started,Fixation.stopped,probe.started,kev_resp.started,trial.stopped,trials.kev_resp.kevs,trials.kev_resp.corr,trials.kev_resp.rt,trials.kev_resp.duration,trials_2.kev_resp.kevs,trials_2.kev_resp.corr,trials_2.kev_resp.rt,trials_2.kev_resp.duration,participant,session,date,expName,expVersion,psvchopvVersion,frameRate,expStart
-50,x,0,0,0,v,0,0.9651134,None,0,0,0,0,,,,,0.0288113,,0.0237734,0.0288113,1.0133145,1.0133145,1.0133145,1.0133145,1.0308091,2.0131365,2.0131365,3.0185125,v,0,0.9651134,None,,,,,5,1,2025-10-04_01h08.51.528,Motor Sequence,,2025.1.1,60.116819,2025-10-04 01h09.01.191448 +0530
150,v,1,1,0,z,0,1.8911916,None,0,1,1,1,,,,,3.0286093,,3.0189387,3.0286093,4.0300712,4.0300712,4.0300712,4.0300712,4.0300712,5.0305923,5.0305923,6.9350379,z,0,1.8911916,None,,,,,5,1,2025-10-04_01h08.51.528,Motor Sequence,,2025.1.1,60.116819,2025-10-04 01h09.01.191448 +0530
50,c,2,2,0,c,1,1.0418602,None,0,2,2,2,,,,,6.9488016,,6.9353705,6.9488016,7.934126,7.934126,7.934126,7.934126,7.9504105,8.9484505,8.9484505,10.0024518,c,1,1.0418602,None,,,,,5,1,2025-10-04_01h08.51.528,Motor Sequence,,2025.1.1,60.116819,2025-10-04 01h09.01.191448 +0530
-150,z,3,3,0,x,0,0.8288844,None,0,3,3,3,,,,,10.015153,,10.0030887,10.015153,11.0293192,11.0293192,11.0293192,11.0293192,11.0293192,12.035243,12.035243,12.8687295,x,0,0.8288844,None,,,,,5,1,2025-10-04_01h08.51.528,Motor Sequence,,2025.1.1,60.116819,2025-10-04 01h09.01.191448 +0530
-50,x,4,0,1,v,0,0.7225162,None,1,0,4,0,,,,,12.8813908,,12.8694075,12.8813908,13.8812217,13.8812217,13.8812217,13.8812217,13.8812217,14.8789488,14.8789488,15.6147329,v,0,0.7225162,None,,,,,5,1,2025-10-04_01h08.51.528,Motor Sequence,,2025.1.1,60.116819,2025-10-04 01h09.01.191448 +0530
150,v,5,1,1,z,0,0.6835596,None,1,1,5,1,,,,,15.6293045,,15.6150022,15.6293045,16.6284599,16.6284599,16.6284599,16.6284599,16.6284599,17.6293055,17.6293055,18.3154536,z,0,0.6835596,None,,,,,5,1,2025-10-04_01h08.51.528,Motor Sequence,,2025.1.1,60.116819,2025-10-04 01h09.01.191448 +0530
50,c,6,2,1,c,1,0.9499691,None,1,2,6,2,,,,,18.3293544,,18.3158357,18.3293544,19.3285521,19.3285521,19.3285521,19.3285521,19.3285521,20.3292473,20.3292473,21.2824257,c,1,0.9499691,None,,,,,5,1,2025-10-04_01h08.51.528,Motor Sequence,,2025.1.1,60.116819,2025-10-04 01h09.01.191448 +0530
-150,z,7,3,1,x,0,0.7897451,None,1,3,7,3,,,,,21.2962092,,21.2827261,21.2962092,22.2951609,22.2951609,22.2951609,22.2951609,22.3113939,23.2950356,23.2950356,24.0974091,x,0,0.7897451,None,,,,,5,1,2025-10-04_01h08.51.528,Motor Sequence,,2025.1.1,60.116819,2025-10-04 01h09.01.191448 +0530
-50,x,8,0,2,v,0,0.8100486,None,2,0,8,0,,,,,24.1123161,,24.0976115,24.1123161,25.1131035,25.1131035,25.1131035,25.1131035,25.1131035,26.1129245,26.1129245,26.9303796,v,0,0.8100486,None,,,,,5,1,2025-10-04_01h08.51.528,Motor Sequence,,2025.1.1,60.116819,2025-10-04 01h09.01.191448 +0530
150,v,9,1,2,z,0,0.5191995,None,2,1,9,1,,,,,26.9463692,,26.930596,26.9463692,27.9301003,27.9301003,27.9301003,27.9301003,27.9473693,28.9303636,28.9303636,29.4512519,z,0,0.5191995,None,,,,,5,1,2025-10-04_01h08.51.528,Motor Sequence,,2025.1.1,60.116819,2025-10-04 01h09.01.191448 +0530
50,c,10,2,2,c,1,1.2144285,None,2,2,10,2,,,,,29.4627928,,29.4515921,29.4627928,30.4614941,30.4614941,30.4614941,30.4614941,30.4614941,31.4613443,31.4613443,32.6838327,c,1,1.2144285,None,,,,,5,1,2025-10-04_01h08.51.528,Motor Sequence,,2025.1.1,60.116819,2025-10-04 01h09.01.191448 +0530
-150,z,11,3,2,x,0,1.1005271,None,2,3,11,3,,,,,32.696862,,32.684173,32.696862,33.6963359,33.6963359,33.6963359,33.6963359,33.6963359,34.6956187,34.6956187,35.8017308,x,0,1.1005271,None,,,,,5,1,2025-10-04_01h08.51.528,Motor Sequence,,2025.1.1,60.116819,2025-10-04 01h09.01.191448 +0530
-50,x,12,0,3,v,0,0.5705215,None,3,0,12,0,,,,,35.8127086,,35.8020781,35.8127086,36.8125158,36.8125158,36.8125158,36.8125158,36.8125158,37.8123473,37.8123473,38.3859708,v,0,0.5705215,None,,,,,5,1,2025-10-04_01h08.51.528,Motor Sequence,,2025.1.1,60.116819,2025-10-04 01h09.01.191448 +0530
150,v,13,1,3,x,0,1.5995994,None,3,1,13,1,,,,,38.3956302,,38.3863606,38.3956302,39.3958952,39.3958952,39.3958952,39.3958952,39.3958952,40.39656,40.39656,41.998589,x,0,1.5995994,None,,,,,5,1,2025-10-04_01h08.51.528,Motor Sequence,,2025.1.1,60.116819,2025-10-04 01h09.01.191448 +0530
50,c,14,2,3,c,1,3.3424798,None,3,2,14,2,,,,,42.0119591,,41.99891,42.0119591,43.0120772,43.0120772,43.0120772,43.0120772,43.0120772,44.0131759,44.0131759,47.3671617,c,1,3.3424798,None,,,,,5,1,2025-10-04_01h08.51.528,Motor Sequence,,2025.1.1,60.116819,2025-10-04 01h09.01.191448 +0530
-150,z,15,3,3,x,0,0.4860366,None,3,3,15,3,,,,,47.3801939,,47.3675198,47.3801939,48.3802255,48.3802255,48.3802255,48.3802255,48.3802255,49.3795164,49.3795164,49.8671429,x,0,0.4860366,None,,,,,5,1,2025-10-04_01h08.51.528,Motor Sequence,,2025.1.1,60.116819,2025-10-04 01h09.01.191448 +0530
-50,x,16,0,4,v,0,0.7345817,None,4,0,16,0,,,,,49.8801885,,49.8675754,49.8801885,50.8804719,50.8804719,50.8804719,50.8804719,50.8804719,51.8796665,51.8796665,52.6173838,v,0,0.7345817,None,,,,,5,1,2025-10-04_01h08.51.528,Motor Sequence,,2025.1.1,60.116819,2025-10-04 01h09.01.191448 +0530
150,v,17,1,4,z,0,1.5290982,None,4,1,17,1,,,,,52.6301388,,52.6177377,52.6301388,53.6293585,53.6293585,53.6293585,53.6293585,53.6293585,54.6299492,54.6299492,56.1667925,z,0,1.5290982,None,,,,,5,1,2025-10-04_01h08.51.528,Motor Sequence,,2025.1.1,60.116819,2025-10-04 01h09.01.191448 +0530
50,c,18,2,4,c,1,1.1684822,None,4,2,18,2,,,,,56.1794635,,56.1671467,56.1794635,57.1797333,57.1797333,57.1797333,57.1797333,57.1797333,58.1796042,58.1796042,59.3496152,c,1,1.1684822,None,,,,,5,1,2025-10-04_01h08.51.528,Motor Sequence,,2025.1.1,60.116819,2025-10-04 01h09.01.191448 +0530
-150,z,19,3,4,x,0,0.5975387,None,4,3,19,3,,,,,59.3627216,,59.3499874,59.3627216,60.3624542,60.3624542,60.3624542,60.3624542,60.3624542,61.3623495,61.3623495,61.9675004,x,0,0.5975387,None,,,,,5,1,2025-10-04_01h08.51.528,Motor Sequence,,2025.1.1,60.116819,2025-10-04 01h09.01.191448 +0530
-50,x,20,0,5,v,0,0.7001283,None,5,0,20,0,,,,,61.9788889,,61.9678318,61.9788889,62.9790515,62.9790515,62.9790515,62.9790515,62.9790515,63.9780965,63.9780965,64.6840472,v,0,0.7001283,None,,,,,5,1,2025-10-04_01h08.51.528,Motor Sequence,,2025.1.1,60.116819,2025-10-04 01h09.01.191448 +0530
150,v,21,1,5,z,0,0.5875305,None,5,1,21,1,,,,,64.696196,,64.6844169,64.696196,65.6973784,65.6973784,65.6973784,65.6973784,65.6973784,66.6955783,66.6955783,67.2990506,z,0,0.5875305,None,,,,,5,1,2025-10-04_01h08.51.528,Motor Sequence,,2025.1.1,60.116819,2025-10-04 01h09.01.191448 +0530
50,c,22,2,5,c,1,1.5545767,None,5,2,22,2,,,,,67.3132879,,67.2994691,67.3132879,68.3122375,68.3122375,68.3122375,68.3122375,68.3122375,69.3128845,69.3128845,70.883169,c,1,1.5545767,None,,,,,5,1,2025-10-04_01h08.51.528,Motor Sequence,,2025.1.1,60.116819,2025-10-04 01h09.01.191448 +0530
-150,z,23,3,5,x,0,0.5300881,None,5,3,23,3,,,,,70.8956885,,70.8835526,70.8956885,71.8950572,71.8950572,71.8950572,71.8950572,71.8950572,72.894165,72.894165,73.43018,x,0,0.5300881,None,,,,,5,1,2025-10-04_01h08.51.528,Motor Sequence,,2025.1.1,60.116819,2025-10-04 01h09.01.191448 +0530
-50,x,24,0,6,v,0,0.4294365,None,6,0,24,0,,,,,73.4443215,,73.4303852,73.4443215,74.4445347,74.4445347,74.4445347,74.4445347,74.4445347,75.4443198,75.4443198,75.882556,v,0,0.4294365,None,,,,,5,1,2025-10-04_01h08.51.528,Motor Sequence,,2025.1.1,60.116819,2025-10-04 01h09.01.191448 +0530
150,v,25,1,6,z,0,0.6569052,None,6,1,25,1,,,,,75.8957347,,75.8828429,75.8957347,76.8962771,76.8962771,76.8962771,76.8962771,76.8962771,77.8946355,77.8946355,78.567436,z,0,0.6569052,None,,,,,5,1,2025-10-04_01h08.51.528,Motor Sequence,,2025.1.1,60.116819,2025-10-04 01h09.01.191448 +0530
50,c,26,2,6,c,1,1.4654441,None,6,2,26,2,,,,,78.5792139,,78.5678807,78.5792139,79.5796885,79.5796885,79.5796885,79.5796885,79.5796885,80.5788026,80.5788026,82.0502698,c,1,1.4654441,None,,,,,5,1,2025-10-04_01h08.51.528,Motor Sequence,,2025.1.1,60.116819,2025-10-04 01h09.01.191448 +0530
-150,z,27,3,6,x,0,0.5795207,None,6,3,27,3,,,,,82.0622612,,82.0506111,82.0622612,83.0630193,83.0630193,83.0630193,83.0630193,83.0630193,84.0608623,84.0608623,84.6492673,x,0,0.5795207,None,,,,,5,1,2025-10-04_01h08.51.528,Motor Sequence,,2025.1.1,60.116819,2025-10-04 01h09.01.191448 +0530
-50,x,28,0,7,v,0,0.4605002,None,7,0,28,0,,,,,84.6629537,,84.6496083,84.6629537,85.6628257,85.6628257,85.6628257,85.6628257,85.6628257,86.6608609,86.6608609,87.1317989,v,0,0.4605002,None,,,,,5,1,2025-10-04_01h08.51.528,Motor Sequence,,2025.1.1,60.116819,2025-10-04 01h09.01.191448 +0530
150,v,29,1,7,z,0,0.5887625,None,7,1,29,1,,,,,87.1460522,,87.1320784,87.1460522,88.1459907,88.1459907,88.1459907,88.1459907,88.1459907,89.1464489,89.1464489,89.7506821,z,0,0.5887625,None,,,,,5,1,2025-10-04_01h08.51.528,Motor Sequence,,2025.1.1,60.116819,2025-10-04 01h09.01.191448 +0530
50,c,30,2,7,c,1,0.6511657,None,7,2,30,2,,,,,89.7627573,,89.7511129,89.7627573,90.7626533,90.7626533,90.7626533,90.7626533,90.7626533,91.762781,91.762781,92.4174706,c,1,0.6511657,None,,,,,5,1,2025-10-04_01h08.51.528,Motor Sequence,,2025.1.1,60.116819,2025-10-04 01h09.01.191448 +0530
-150,z,31,3,7,x,0,0.5725246,None,7,3,31,3,,,,,92.4297407,,92.4178357,92.4297407,93.4291659,93.4291659,93.4291659,93.4291659,93.4291659,94.429451,94.429451,95.0167872,x,0,0.5725246,None,,,,,5,1,2025-10-04_01h08.51.528,Motor Sequence,,2025.1.1,60.116819,2025-10-04 01h09.01.191448 +0530
-50,x,32,0,8,v,0,1.8125577,None,8,0,32,0,,,,,95.0294101,,95.0171642,95.0294101,96.0288725,96.0288725,96.0288725,96.0288725,96.0288725,97.0288571,97.0288571,98.8481785,v,0,1.8125577,None,,,,,5,1,2025-10-04_01h08.51.528,Motor Sequence,,2025.1.1,60.116819,2025-10-04 01h09.01.191448 +0530
150,v,33,1,8,z,0,0.7479168,None,8,1,33,1,,,,,98.862914,,98.8485162,98.862914,99.8620165,99.8620165,99.8620165,99.8620165,99.8620165,100.8623427,100.8623427,101.6168114,z,0,0.7479168,None,,,,,5,1,2025-10-04_01h08.51.528,Motor Sequence,,2025.1.1,60.116819,2025-10-04 01h09.01.191448 +0530
50,c,34,2,8,c,1,0.958862,None,8,2,34,2,,,,,101.6294721,,101.6171718,101.6294721,102.629035,102.629035,102.629035,102.629035,102.629035,103.6293856,103.6293856,104.6007471,c,1,0.958862,None,,,,,5,1,2025-10-04_01h08.51.528,Motor Sequence,,2025.1.1,60.116819,2025-10-04 01h09.01.191448 +0530
-150,z,35,3,8,x,0,0.5371349,None,8,3,35,3,,,,,104.6122709,,104.6011242,104.6122709,105.612701,105.612701,105.612701,105.612701,105.612701,106.6117123,106.6117123,107.1502725,x,0,0.5371349,None,,,,,5,1,2025-10-04_01h08.51.528,Motor Sequence,,2025.1.1,60.116819,2025-10-04 01h09.01.191448 +0530
-50,x,36,0,9,v,0,0.4132911,None,9,0,36,0,,,,,107.1628839,,107.1506061,107.1628839,108.1621002,108.1621002,108.1621002,108.1621002,108.1621002,109.1625658,109.1625658,109.5811415,v,0,0.4132911,None,,,,,5,1,2025-10-04_01h08.51.528,Motor Sequence,,2025.1.1,60.116819,2025-10-04 01h09.01.191448 +0530
150,v,37,1,9,z,0,3.1569941,None,9,1,37,1,,,,,109.5962288,,109.5814989,109.5962288,110.5960018,110.5960018,110.5960018,110.5960018,110.5960018,111.5943051,111.5943051,114.7657013,z,0,3.1569941,None,,,,,5,1,2025-10-04_01h08.51.528,Motor Sequence,,2025.1.1,60.116819,2025-10-04 01h09.01.191448 +0530
50,c,38,2,9,c,1,1.5561026,None,9,2,38,2,,,,,114.7792845,,114.7660182,114.7792845,115.7786638,115.7786638,115.7786638,115.7786638,115.7786638,116.7790463,116.7790463,118.3493449,c,1,1.5561026,None,,,,,5,1,2025-10-04_01h08.51.528,Motor Sequence,,2025.1.1,60.116819,2025-10-04 01h09.01.191448 +0530
-150,z,39,3,9,x,0,0.3374423,None,9,3,39,3,,,,,118.3625441,,118.3497311,118.3625441,119.3618193,119.3618193,119.3618193,119.3618193,119.3618193,120.3619078,120.3619078,120.7161841,x,0,0.3374423,None,,,,,5,1,2025-10-04_01h08.51.528,Motor Sequence,,2025.1.1,60.116819,2025-10-04 01h09.01.191448 +0530
-50,x,40,0,10,v,0,0.3184858,None,10,0,40,0,,,,,120.729211,,120.7165702,120.729211,121.7293104,121.7293104,121.7293104,121.7293104,121.7293104,122.7275328,122.7275328,123.0492865,v,0,0.3184858,None,,,,,5,1,2025-10-04_01h08.51.528,Motor Sequence,,2025.1.1,60.116819,2025-10-04 01h09.01.191448 +0530
150,v,41,1,10,x,0,1.6825127,None,10,1,41,1,,,,,123.0624143,,123.0496406,123.0624143,124.0621039,124.0621039,124.0621039,124.0621039,124.0621039,125.061809,125.061809,126.7503676,x,0,1.6825127,None,,,,,5,1,2025-10-04_01h08.51.528,Motor Sequence,,2025.1.1,60.116819,2025-10-04 01h09.01.191448 +0530
50,c,42,2,10,c,1,0.6640633,None,10,2,42,2,,,,,126.7614862,,126.7507683,126.7614862,127.7603378,127.7603378,127.7603378,127.7603378,127.7603378,128.762254,128.762254,129.4335682,c,1,0.6640633,None,,,,,5,1,2025-10-04_01h08.51.528,Motor Sequence,,2025.1.1,60.116819,2025-10-04 01h09.01.191448 +0530
-150,z,43,3,10,x,0,0.3205733,None,10,3,43,3,,,,,129.4457234,,129.4339327,129.4457234,130.4455493,130.4455493,130.4455493,130.4455493,130.4455493,131.4456166,131.4456166,131.767652,x,0,0.3205733,None,,,,,5,1,2025-10-04_01h08.51.528,Motor Sequence,,2025.1.1,60.116819,2025-10-04 01h09.01.191448 +0530
-50,x,44,0,11,v,0,0.2899024,None,11,0,44,0,,,,,131.7780577,,131.7680038,131.7780577,132.7774624,132.7774624,132.7774624,132.7774624,132.7774624,133.7789263,133.7789263,134.0828007,v,0,0.2899024,None,,,,,5,1,2025-10-04_01h08.51.528,Motor Sequence,,2025.1.1,60.116819,2025-10-04 01h09.01.191448 +0530
150,v,45,1,11,z,0,1.1323217,None,11,1,45,1,,,,,134.095497,,134.08315,134.095497,135.0939136,135.0939136,135.0939136,135.0939136,135.1102479,136.0938245,136.0938245,137.2313499,z,0,1.1323217,None,,,,,5,1,2025-10-04_01h08.51.528,Motor Sequence,,2025.1.1,60.116819,2025-10-04 01h09.01.191448 +0530
50,c,46,2,11,c,1,0.2788068,None,11,2,46,2,,,,,137.2457972,,137.2316122,137.2457972,138.2447039,138.2447039,138.2447039,138.2447039,138.2447039,139.245532,139.245532,139.5319718,c,1,0.2788068,None,,,,,5,1,2025-10-04_01h08.51.528,Motor Sequence,,2025.1.1,60.116819,2025-10-04 01h09.01.191448 +0530
-150,z,47,3,11,x,0,0.8135815,None,11,3,47,3,,,,,139.5463835,,139.532353,139.5463835,140.5452308,140.5452308,140.5452308,140.5452308,140.5452308,141.5455371,141.5455371,142.3663994,x,0,0.8135815,None,,,,,5,1,2025-10-04_01h08.51.528,Motor Sequence,,2025.1.1,60.116819,2025-10-04 01h09.01.191448 +0530
-50,x,48,0,12,v,0,1.1010522,None,12,0,48,0,,,,,142.3785781,,142.3667596,142.3785781,143.378842,143.378842,143.378842,143.378842,143.378842,144.378914,144.378914,145.4840345,v,0,1.1010522,None,,,,,5,1,2025-10-04_01h08.51.528,Motor Sequence,,2025.1.1,60.116819,2025-10-04 01h09.01.191448 +0530
150,v,49,1,12,z,0,1.8339169,None,12,1,49,1,,,,,145.4954477,,145.4843965,145.4954477,146.4948821,146.4948821,146.4948821,146.4948821,146.4948821,147.4951076,147.4951076,149.3354716,z,0,1.8339169,None,,,,,5,1,2025-10-04_01h08.51.528,Motor Sequence,,2025.1.1,60.116819,2025-10-04 01h09.01.191448 +0530
50,c,50,2,12,c,1,0.9325816,None,12,2,50,2,,,,,149.3463173,,149.3357952,149.3463173,150.3456109,150.3456109,150.3456109,150.3456109,150.3456109,151.3456161,151.3456161,152.2835428,c,1,0.9325816,None,,,,,5,1,2025-10-04_01h08.51.528,Motor Sequence,,2025.1.1,60.116819,2025-10-04 01h09.01.191448 +0530
-150,z,51,3,12,x,0,1.0528625,None,12,3,51,3,,,,,152.2947001,,152.2838927,152.2947001,153.2959001,153.2959001,153.2959001,153.2959001,153.2959001,154.2967796,154.2967796,155.3506754,x,0,1.0528625,None,,,,,5,1,2025-10-04_01h08.51.528,Motor Sequence,,2025.1.1,60.116819,2025-10-04 01h09.01.191448 +0530
-50,x,52,0,13,v,0,0.4198492,None,13,0,52,0,,,,,155.3615369,,155.3510238,155.3615369,156.3612611,156.3612611,156.3612611,156.3612611,156.3612611,157.3625604,157.3625604,157.7982598,v,0,0.4198492,None,,,,,5,1,2025-10-04_01h08.51.528,Motor Sequence,,2025.1.1,60.116819,2025-10-04 01h09.01.191448 +0530
150,v,53,1,13,z,0,2.4026617,None,13,1,53,1,,,,,157.8120551,,157.7986571,157.8120551,158.8113139,158.8113139,158.8113139,158.8113139,158.8113139,159.8113967,159.8113967,162.2175853,z,0,2.4026617,None,,,,,5,1,2025-10-04_01h08.51.528,Motor Sequence,,2025.1.1,60.116819,2025-10-04 01h09.01.191448 +0530
50,c,54,2,13,c,1,0.6787117,None,13,2,54,2,,,,,162.2279991,,162.2179912,162.2279991,163.2284238,163.2284238,163.2284238,163.2284238,163.2284238,164.2288742,164.2288742,164.9159702,c,1,0.6787117,None,,,,,5,1,2025-10-04_01h08.51.528,Motor Sequence,,2025.1.1,60.116819,2025-10-04 01h09.01.191448 +0530
-150,z,55,3,13,x,0,0.5483026,None,13,3,55,3,,,,,164.9277212,,164.9163312,164.9277212,165.9282937,165.9282937,165.9282937,165.9282937,165.9282937,166.928117,166.928117,167.4792383,x,0,0.5483026,None,,,,,5,1,2025-10-04_01h08.51.528,Motor Sequence,,2025.1.1,60.116819,2025-10-04 01h09.01.191448 +0530
-50,x,56,0,14,v,0,0.3877677,None,14,0,56,0,,,,,167.4937105,,167.4795116,167.4937105,168.4931766,168.4931766,168.4931766,168.4931766,168.4931766,169.4787822,169.4787822,169.8825532,v,0,0.3877677,None,,,,,5,1,2025-10-04_01h08.51.528,Motor Sequence,,2025.1.1,60.116819,2025-10-04 01h09.01.191448 +0530
150,v,57,1,14,z,0,1.9994341,None,14,1,57,1,,,,,169.8966311,,169.8828976,169.8966311,170.8955052,170.8955052,170.8955052,170.8955052,170.8955052,171.8952481,171.8952481,173.8999446,z,0,1.9994341,None,,,,,5,1,2025-10-04_01h08.51.528,Motor Sequence,,2025.1.1,60.116819,2025-10-04 01h09.01.191448 +0530
50,c,58,2,14,c,1,0.6868615,None,14,2,58,2,,,,,173.9115764,,173.9002745,173.9115764,174.9117466,174.9117466,174.9117466,174.9117466,174.9117466,175.9112779,175.9112779,176.598993,c,1,0.6868615,None,,,,,5,1,2025-10-04_01h08.51.528,Motor Sequence,,2025.1.1,60.116819,2025-10-04 01h09.01.191448 +0530
-150,z,59,3,14,x,0,1.2434236,None,14,3,59,3,,,,,176.6120808,,176.5993313,176.6120808,177.6112224,177.6112224,177.6112224,177.6112224,177.6112224,178.6110529,178.6110529,179.8653701,x,0,1.2434236,None,,,,,5,1,2025-10-04_01h08.51.528,Motor Sequence,,2025.1.1,60.116819,2025-10-04 01h09.01.191448 +0530
-50,x,60,0,15,v,0,0.7632502,None,15,0,60,0,,,,,179.8787634,,179.8657496,179.8787634,180.8779352,180.8779352,180.8779352,180.8779352,180.8779352,181.8781468,181.8781468,182.6492191,v,0,0.7632502,None,,,,,5,1,2025-10-04_01h08.51.528,Motor Sequence,,2025.1.1,60.116819,2025-10-04 01h09.01.191448 +0530
150,v,61,1,15,z,0,2.1837453,None,15,1,61,1,,,,,182.6618814,,182.6495847,182.6618814,183.6601451,183.6601451,183.6601451,183.6601451,183.6601451,184.6610635,184.6610635,186.8505155,z,0,2.1837453,None,,,,,5,1,2025-10-04_01h08.51.528,Motor Sequence,,2025.1.1,60.116819,2025-10-04 01h09.01.191448 +0530
50,c,62,2,15,c,1,2.7949348,None,15,2,62,2,,,,,186.8613953,,186.8508845,186.8613953,187.8611323,187.8611323,187.8611323,187.8611323,187.8611323,188.8596996,188.8596996,191.666428,c,1,2.7949348,None,,,,,5,1,2025-10-04_01h08.51.528,Motor Sequence,,2025.1.1,60.116819,2025-10-04 01h09.01.191448 +0530
-150,z,63,3,15,x,0,0.6310782,None,15,3,63,3,,,,,191.6785854,,191.6668796,191.6785854,192.6778389,192.6778389,192.6778389,192.6778389,192.6778389,193.6771093,193.6771093,194.315171,x,0,0.6310782,None,,,,,5,1,2025-10-04_01h08.51.528,Motor Sequence,,2025.1.1,60.116819,2025-10-04 01h09.01.191448 +0530
-50,x,64,0,16,v,0,0.8782564,None,16,0,64,0,,,,,194.327862,,194.3155227,194.327862,195.3285251,195.3285251,195.3285251,195.3285251,195.3285251,196.3278103,196.3278103,197.2149899,v,0,0.8782564,None,,,,,5,1,2025-10-04_01h08.51.528,Motor Sequence,,2025.1.1,60.116819,2025-10-04 01h09.01.191448 +0530
150,v,65,1,16,z,0,0.9173307,None,16,1,65,1,,,,,197.2278299,,197.2153078,197.2278299,198.2281432,198.2281432,198.2281432,198.2281432,198.2281432,199.2262344,199.2262344,200.1452197,z,0,0.9173307,None,,,,,5,1,2025-10-04_01h08.51.528,Motor Sequence,,2025.1.1,60.116819,2025-10-04 01h09.01.191448 +0530
50,c,66,2,16,c,1,0.8423222,None,16,2,66,2,,,,,200.1600376,,200.1454203,200.1600376,201.1605413,201.1605413,201.1605413,201.1605413,201.1605413,202.1595987,202.1595987,203.0116462,c,1,0.8423222,None,,,,,5,1,2025-10-04_01h08.51.528,Motor Sequence,,2025.1.1,60.116819,2025-10-04 01h09.01.191448 +0530
-150,z,67,3,16,x,0,0.4357066,None,16,3,67,3,,,,,203.0264969,,203.0118381,203.0264969,204.01095,204.01095,204.01095,204.01095,204.0269657,205.0112883,205.0112883,205.4493418,x,0,0.4357066,None,,,,,5,1,2025-10-04_01h08.51.528,Motor Sequence,,2025.1.1,60.116819,2025-10-04 01h09.01.191448 +0530
-50,x,68,0,17,v,0,0.5770142,None,17,0,68,0,,,,,205.4616747,,205.4497249,205.4616747,206.4615603,206.4615603,206.4615603,206.4615603,206.4615603,207.4612987,207.4612987,208.0474057,v,0,0.5770142,None,,,,,5,1,2025-10-04_01h08.51.528,Motor Sequence,,2025.1.1,60.116819,2025-10-04 01h09.01.191448 +0530
150,v,69,1,17,z,0,0.5679439,None,17,1,69,1,,,,,208.0617218,,208.0477401,208.0617218,209.0611159,209.0611159,209.0611159,209.0611159,209.0611159,210.0612767,210.0612767,210.6316024,z,0,0.5679439,None,,,,,5,1,2025-10-04_01h08.51.528,Motor Sequence,,2025.1.1,60.116819,2025-10-04 01h09.01.191448 +0530
50,c,70,2,17,c,1,0.7984481,None,17,2,70,2,,,,,210.6450363,,210.6319359,210.6450363,211.6444566,211.6444566,211.6444566,211.6444566,211.6444566,212.6443551,212.6443551,213.4493599,c,1,0.7984481,None,,,,,5,1,2025-10-04_01h08.51.528,Motor Sequence,,2025.1.1,60.116819,2025-10-04 01h09.01.191448 +0530
-150,z,71,3,17,x,0,0.6248503,None,17,3,71,3,,,,,213.460929,,213.4496896,213.460929,214.460167,214.460167,214.460167,214.460167,214.460167,215.4609068,215.4609068,216.0983407,x,0,0.6248503,None,,,,,5,1,2025-10-04_01h08.51.528,Motor Sequence,,2025.1.1,60.116819,2025-10-04 01h09.01.191448 +0530
-50,x,72,0,18,v,0,0.2471156,None,18,0,72,0,,,,,216.1117215,,216.0987853,216.1117215,217.1112638,217.1112638,217.1112638,217.1112638,217.1112638,218.1113542,218.1113542,218.3649769,v,0,0.2471156,None,,,,,5,1,2025-10-04_01h08.51.528,Motor Sequence,,2025.1.1,60.116819,2025-10-04 01h09.01.191448 +0530
150,v,73,1,18,z,0,0.5259685,None,18,1,73,1,,,,,218.3780534,,218.3653564,218.3780534,219.3779136,219.3779136,219.3779136,219.3779136,219.3779136,220.3772746,220.3772746,220.9144142,z,0,0.5259685,None,,,,,5,1,2025-10-04_01h08.51.528,Motor Sequence,,2025.1.1,60.116819,2025-10-04 01h09.01.191448 +0530
50,c,74,2,18,c,1,0.8507347,None,18,2,74,2,,,,,220.9276271,,220.9147754,220.9276271,221.928029,221.928029,221.928029,221.928029,221.928029,222.9281745,222.9281745,223.7824345,c,1,0.8507347,None,,,,,5,1,2025-10-04_01h08.51.528,Motor Sequence,,2025.1.1,60.116819,2025-10-04 01h09.01.191448 +0530
-150,z,75,3,18,x,0,0.2604718,None,18,3,75,3,,,,,223.7944572,,223.782734,223.7944572,224.793815,224.793815,224.793815,224.793815,224.793815,225.7949412,225.7949412,226.0641545,x,0,0.2604718,None,,,,,5,1,2025-10-04_01h08.51.528,Motor Sequence,,2025.1.1,60.116819,2025-10-04 01h09.01.191448 +0530
-50,x,76,0,19,v,0,0.3818766,None,19,0,76,0,,,,,226.0782299,,226.0644553,226.0782299,227.0784194,227.0784194,227.0784194,227.0784194,227.0784194,228.0779342,228.0779342,228.4654206,v,0,0.3818766,None,,,,,5,1,2025-10-04_01h08.51.528,Motor Sequence,,2025.1.1,60.116819,2025-10-04 01h09.01.191448 +0530
150,v,77,1,19,z,0,0.472313,None,19,1,77,1,,,,,228.4781839,,228.4657696,228.4781839,229.4775204,229.4775204,229.4775204,229.4775204,229.4775204,230.4774716,230.4774716,230.9666916,z,0,0.472313,None,,,,,5,1,2025-10-04_01h08.51.528,Motor Sequence,,2025.1.1,60.116819,2025-10-04 01h09.01.191448 +0530
50,c,78,2,19,c,1,0.2565279,None,19,2,78,2,,,,,230.9778942,,230.9670901,230.9778942,231.9773589,231.9773589,231.9773589,231.9773589,231.9773589,232.9781996,232.9781996,233.2354326,c,1,0.2565279,None,,,,,5,1,2025-10-04_01h08.51.528,Motor Sequence,,2025.1.1,60.116819,2025-10-04 01h09.01.191448 +0530
-150,z,79,3,19,x,0,0.3234499,None,19,3,79,3,,,,,233.2443044,,233.235883,233.2443044,234.2443499,234.2443499,234.2443499,234.2443499,234.2443499,235.2442927,235.2442927,235.5806412,x,0,0.3234499,None,,,,,5,1,2025-10-04_01h08.51.528,Motor Sequence,,2025.1.1,60.116819,2025-10-04 01h09.01.191448 +0530
-50,x,80,0,20,v,0,0.3486008,None,20,0,80,0,,,,,235.5948613,,235.5810024,235.5948613,236.5945382,236.5945382,236.5945382,236.5945382,236.5945382,237.5938665,237.5938665,237.9499223,v,0,0.3486008,None,,,,,5,1,2025-10-04_01h08.51.528,Motor Sequence,,2025.1.1,60.116819,2025-10-04 01h09.01.191448 +0530
150,v,81,1,20,z,0,0.7033498,None,20,1,81,1,,,,,237.9607891,,237.9503202,237.9607891,238.9607471,238.9607471,238.9607471,238.9607471,238.9607471,239.9609209,239.9609209,240.6653417,z,0,0.7033498,None,,,,,5,1,2025-10-04_01h08.51.528,Motor Sequence,,2025.1.1,60.116819,2025-10-04 01h09.01.191448 +0530
50,c,82,2,20,c,1,0.4521505,None,20,2,82,2,,,,,240.6782254,,240.665684,240.6782254,241.6776307,241.6776307,241.6776307,241.6776307,241.6776307,242.677366,242.677366,243.1311086,c,1,0.4521505,None,,,,,5,1,2025-10-04_01h08.51.528,Motor Sequence,,2025.1.1,60.116819,2025-10-04 01h09.01.191448 +0530
-150,z,83,3,20,x,0,0.2859732,None,20,3,83,3,,,,,243.144937,,243.1314344,243.144937,244.143439,244.143439,244.143439,244.143439,244.143439,245.1442921,245.1442921,245.4314362,x,0,0.2859732,None,,,,,5,1,2025-10-04_01h08.51.528,Motor Sequence,,2025.1.1,60.116819,2025-10-04 01h09.01.191448 +0530
-50,x,84,0,21,v,0,0.3641822,None,21,0,84,0,,,,,245.4444545,,245.4317771,245.4444545,246.4435155,246.4435155,246.4435155,246.4435155,246.4599655,247.4439612,247.4439612,247.8153845,v,0,0.3641822,None,,,,,5,1,2025-10-04_01h08.51.528,Motor Sequence,,2025.1.1,60.116819,2025-10-04 01h09.01.191448 +0530
150,v,85,1,21,z,0,0.720536,None,21,1,85,1,,,,,247.8274501,,247.8157229,247.8274501,248.8274248,248.8274248,248.8274248,248.8274248,248.8274248,249.8278793,249.8278793,250.5646443,z,0,0.720536,None,,,,,5,1,2025-10-04_01h08.51.528,Motor Sequence,,2025.1.1,60.116819,2025-10-04 01h09.01.191448 +0530
50,c,86,2,21,c,1,0.3031402,None,21,2,86,2,,,,,250.5776963,,250.5650064,250.5776963,251.5776676,251.5776676,251.5776676,251.5776676,251.5776676,252.5756696,252.5756696,252.8943533,c,1,0.3031402,None,,,,,5,1,2025-10-04_01h08.51.528,Motor Sequence,,2025.1.1,60.116819,2025-10-04 01h09.01.191448 +0530
-150,z,87,3,21,x,0,1.6252375,None,21,3,87,3,,,,,252.90957,,252.8945449,252.90957,253.8946472,253.8946472,253.8946472,253.8946472,253.9102991,254.8946285,254.8946285,256.5307863,x,0,1.6252375,None,,,,,5,1,2025-10-04_01h08.51.528,Motor Sequence,,2025.1.1,60.116819,2025-10-04 01h09.01.191448 +0530
-50,x,88,0,22,v,0,0.7324627,None,22,0,88,0,,,,,256.5451398,,256.531152,256.5451398,257.5436434,257.5436434,257.5436434,257.5436434,257.5436434,258.5438495,258.5438495,259.2814738,v,0,0.7324627,None,,,,,5,1,2025-10-04_01h08.51.528,Motor Sequence,,2025.1.1,60.116819,2025-10-04 01h09.01.191448 +0530
150,v,89,1,22,z,0,4.7873178,None,22,1,89,1,,,,,259.2941074,,259.2817989,259.2941074,260.2934813,260.2934813,260.2934813,260.2934813,260.2934813,261.2941144,261.2941144,266.0976349,z,0,4.7873178,None,,,,,5,1,2025-10-04_01h08.51.528,Motor Sequence,,2025.1.1,60.116819,2025-10-04 01h09.01.191448 +0530
50,c,90,2,22,c,1,1.8947983,None,22,2,90,2,,,,,266.1116002,,266.0980008,266.1116002,267.1108996,267.1108996,267.1108996,267.1108996,267.1262139,268.1100582,268.1100582,270.0150914,c,1,1.8947983,None,,,,,5,1,2025-10-04_01h08.51.528,Motor Sequence,,2025.1.1,60.116819,2025-10-04 01h09.01.191448 +0530
-150,z,91,3,22,x,0,0.683721,None,22,3,91,3,,,,,270.0265596,,270.0154488,270.0265596,271.0271889,271.0271889,271.0271889,271.0271889,271.0271889,272.0267902,272.0267902,272.7143833,x,0,0.683721,None,,,,,5,1,2025-10-04_01h08.51.528,Motor Sequence,,2025.1.1,60.116819,2025-10-04 01h09.01.191448 +0530
-50,x,92,0,23,v,0,2.0830334,None,23,0,92,0,,,,,272.7274597,,272.7147397,272.7274597,273.7268325,273.7268325,273.7268325,273.7268325,273.7268325,274.7260123,274.7260123,276.8158855,v,0,2.0830334,None,,,,,5,1,2025-10-04_01h08.51.528,Motor Sequence,,2025.1.1,60.116819,2025-10-04 01h09.01.191448 +0530
150,v,93,1,23,x,0,2.6199399,None,23,1,93,1,,,,,276.8270699,,276.8162862,276.8270699,277.8259583,277.8259583,277.8259583,277.8259583,277.8259583,278.8265288,278.8265288,281.4488029,x,0,2.6199399,None,,,,,5,1,2025-10-04_01h08.51.528,Motor Sequence,,2025.1.1,60.116819,2025-10-04 01h09.01.191448 +0530
50,c,94,2,23,c,1,2.4376374,None,23,2,94,2,,,,,281.460126,,281.4491671,281.460126,282.4604836,282.4604836,282.4604836,282.4604836,282.4604836,283.4600282,283.4600282,285.8997097,c,1,2.4376374,None,,,,,5,1,2025-10-04_01h08.51.528,Motor Sequence,,2025.1.1,60.116819,2025-10-04 01h09.01.191448 +0530
-150,z,95,3,23,x,0,2.0560812,None,23,3,95,3,,,,,285.9099792,,285.9000862,285.9099792,286.9100553,286.9100553,286.9100553,286.9100553,286.9100553,287.9098118,287.9098118,289.9813401,x,0,2.0560812,None,,,,,5,1,2025-10-04_01h08.51.528,Motor Sequence,,2025.1.1,60.116819,2025-10-04 01h09.01.191448 +0530
-50,x,96,0,24,v,0,0.7263575,None,24,0,96,0,,,,,289.9938434,,289.9817082,289.9938434,290.9934025,290.9934025,290.9934025,290.9934025,290.9934025,291.9930202,291.9930202,292.7317965,v,0,0.7263575,None,,,,,5,1,2025-10-04_01h08.51.528,Motor Sequence,,2025.1.1,60.116819,2025-10-04 01h09.01.191448 +0530
150,v,97,1,24,z,0,0.8504853,None,24,1,97,1,,,,,292.7434198,,292.7322066,292.7434198,293.7438544,293.7438544,293.7438544,293.7438544,293.7438544,294.742442,294.742442,295.5979393,z,0,0.8504853,None,,,,,5,1,2025-10-04_01h08.51.528,Motor Sequence,,2025.1.1,60.116819,2025-10-04 01h09.01.191448 +0530
50,c,98,2,24,c,1,7.5697986,None,24,2,98,2,,,,,295.6102257,,295.5982781,295.6102257,296.6100228,296.6100228,296.6100228,296.6100228,296.6100228,297.6098991,297.6098991,305.1807873,c,1,7.5697986,None,,,,,5,1,2025-10-04_01h08.51.528,Motor Sequence,,2025.1.1,60.116819,2025-10-04 01h09.01.191448 +0530
-150,z,99,3,24,x,0,1.7423509,None,24,3,99,3,,,,,305.193663,,305.1811509,305.193663,306.1925376,306.1925376,306.1925376,306.1925376,306.2091897,307.193242,307.193242,308.9483733,x,0,1.7423509,None,,,,,5,1,2025-10-04_01h08.51.528,Motor Sequence,,2025.1.1,60.116819,2025-10-04 01h09.01.191448 +0530
-50,x,100,0,25,v,0,0.6496267,None,25,0,100,0,,,,,308.9599924,,308.9488404,308.9599924,309.9592954,309.9592954,309.9592954,309.9592954,309.9592954,310.9598094,310.9598094,311.6148628,v,0,0.6496267,None,,,,,5,1,2025-10-04_01h08.51.528,Motor Sequence,,2025.1.1,60.116819,2025-10-04 01h09.01.191448 +0530
150,v,101,1,25,z,0,3.6094629,None,25,1,101,1,,,,,311.6271933,,311.615259,311.6271933,312.6273346,312.6273346,312.6273346,312.6273346,312.6273346,313.6256691,313.6256691,317.2467877,z,0,3.6094629,None,,,,,5,1,2025-10-04_01h08.51.528,Motor Sequence,,2025.1.1,60.116819,2025-10-04 01h09.01.191448 +0530
50,c,102,2,25,c,1,0.7408702,None,25,2,102,2,,,,,317.2600781,,317.2470965,317.2600781,318.2589085,318.2589085,318.2589085,318.2589085,318.2750884,319.2592657,319.2592657,320.0128448,c,1,0.7408702,None,,,,,5,1,2025-10-04_01h08.51.528,Motor Sequence,,2025.1.1,60.116819,2025-10-04 01h09.01.191448 +0530
-150,z,103,3,25,x,0,1.8410922,None,25,3,103,3,,,,,320.0272154,,320.0132034,320.0272154,321.0269993,321.0269993,321.0269993,321.0269993,321.0269993,322.0260294,322.0260294,323.8800223,x,0,1.8410922,None,,,,,5,1,2025-10-04_01h08.51.528,Motor Sequence,,2025.1.1,60.116819,2025-10-04 01h09.01.191448 +0530
-50,x,104,0,26,v,0,0.748332,None,26,0,104,0,,,,,323.8939393,,323.8803681,323.8939393,324.8932558,324.8932558,324.8932558,324.8932558,324.8932558,325.8933537,325.8933537,326.647985,v,0,0.748332,None,,,,,5,1,2025-10-04_01h08.51.528,Motor Sequence,,2025.1.1,60.116819,2025-10-04 01h09.01.191448 +0530
150,v,105,1,26,z,0,1.2376606,None,26,1,105,1,,,,,326.6598567,,326.6483061,326.6598567,327.6595889,327.6595889,327.6595889,327.6595889,327.6595889,328.6591333,328.6591333,329.9137628,z,0,1.2376606,None,,,,,5,1,2025-10-04_01h08.51.528,Motor Sequence,,2025.1.1,60.116819,2025-10-04 01h09.01.191448 +0530
50,c,106,2,26,c,1,1.160654,None,26,2,106,2,,,,,329.9265122,,329.9141202,329.9265122,330.9269682,330.9269682,330.9269682,330.9269682,330.9269682,331.9269507,331.9269507,333.0981665,c,1,1.160654,None,,,,,5,1,2025-10-04_01h08.51.528,Motor Sequence,,2025.1.1,60.116819,2025-10-04 01h09.01.191448 +0530
-150,z,107,3,26,x,0,1.4927509,None,26,3,107,3,,,,,333.110425,,333.098538,333.110425,334.1096837,334.1096837,334.1096837,334.1096837,334.1096837,335.1100523,335.1100523,336.6130347,x,0,1.4927509,None,,,,,5,1,2025-10-04_01h08.51.528,Motor Sequence,,2025.1.1,60.116819,2025-10-04 01h09.01.191448 +0530
-50,x,108,0,27,v,0,0.6507554,None,27,0,108,0,,,,,336.6267124,,336.6133361,336.6267124,337.6265588,337.6265588,337.6265588,337.6265588,337.6265588,338.6265251,338.6265251,339.2798722,v,0,0.6507554,None,,,,,5,1,2025-10-04_01h08.51.528,Motor Sequence,,2025.1.1,60.116819,2025-10-04 01h09.01.191448 +0530
150,v,109,1,27,z,0,0.8643367,None,27,1,109,1,,,,,339.2934677,,339.2801832,339.2934677,340.2938712,340.2938712,340.2938712,340.2938712,340.3095644,341.2920425,341.2920425,342.165075,z,0,0.8643367,None,,,,,5,1,2025-10-04_01h08.51.528,Motor Sequence,,2025.1.1,60.116819,2025-10-04 01h09.01.191448 +0530
50,c,110,2,27,v,0,0.5811014,None,27,2,110,2,,,,,342.177005,,342.1654153,342.177005,343.176178,343.176178,343.176178,343.176178,343.176178,344.1765139,344.1765139,344.7639724,v,0,0.5811014,None,,,,,5,1,2025-10-04_01h08.51.528,Motor Sequence,,2025.1.1,60.116819,2025-10-04 01h09.01.191448 +0530
-150,z,111,3,27,x,0,1.7711861,None,27,3,111,3,,,,,344.7762705,,344.7643157,344.7762705,345.7758566,345.7758566,345.7758566,345.7758566,345.7758566,346.7770304,346.7770304,348.5636276,x,0,1.7711861,None,,,,,5,1,2025-10-04_01h08.51.528,Motor Sequence,,2025.1.1,60.116819,2025-10-04 01h09.01.191448 +0530
-50,x,112,0,28,v,0,0.391016,None,28,0,112,0,,,,,348.5767041,,348.5639797,348.5767041,349.5766008,349.5766008,349.5766008,349.5766008,349.5766008,350.5773148,350.5773148,350.9805505,v,0,0.391016,None,,,,,5,1,2025-10-04_01h08.51.528,Motor Sequence,,2025.1.1,60.116819,2025-10-04 01h09.01.191448 +0530
150,v,113,1,28,z,0,1.2324309,None,28,1,113,1,,,,,350.9933948,,350.9809026,350.9933948,351.9930492,351.9930492,351.9930492,351.9930492,351.9930492,352.9930602,352.9930602,354.2313956,z,0,1.2324309,None,,,,,5,1,2025-10-04_01h08.51.528,Motor Sequence,,2025.1.1,60.116819,2025-10-04 01h09.01.191448 +0530
50,c,114,2,28,c,1,0.44265,None,28,2,114,2,,,,,354.2432661,,354.23183,354.2432661,355.243033,355.243033,355.243033,355.243033,355.243033,356.2425227,356.2425227,356.6965101,c,1,0.44265,None,,,,,5,1,2025-10-04_01h08.51.528,Motor Sequence,,2025.1.1,60.116819,2025-10-04 01h09.01.191448 +0530
-150,z,115,3,28,x,0,0.8889733,None,28,3,115,3,,,,,356.7099101,,356.6968586,356.7099101,357.7093416,357.7093416,357.7093416,357.7093416,357.7093416,358.7098174,358.7098174,359.6137989,x,0,0.8889733,None,,,,,5,1,2025-10-04_01h08.51.528,Motor Sequence,,2025.1.1,60.116819,2025-10-04 01h09.01.191448 +0530
-50,x,116,0,29,v,0,0.3687979,None,29,0,116,0,,,,,359.6264122,,359.6141647,359.6264122,360.6265518,360.6265518,360.6265518,360.6265518,360.6265518,361.6252326,361.6252326,361.998088,v,0,0.3687979,None,,,,,5,1,2025-10-04_01h08.51.528,Motor Sequence,,2025.1.1,60.116819,2025-10-04 01h09.01.191448 +0530
150,v,117,1,29,z,0,0.9804176,None,29,1,117,1,,,,,362.0093428,,361.9986096,362.0093428,363.0098776,363.0098776,363.0098776,363.0098776,363.0098776,364.0097722,364.0097722,364.9977112,z,0,0.9804176,None,,,,,5,1,2025-10-04_01h08.51.528,Motor Sequence,,2025.1.1,60.116819,2025-10-04 01h09.01.191448 +0530
50,c,118,2,29,c,1,1.2503264,None,29,2,118,2,,,,,365.010057,,364.9980801,365.010057,366.0091783,366.0091783,366.0091783,366.0091783,366.0091783,367.0095597,367.0095597,368.2645688,c,1,1.2503264,None,,,,,5,1,2025-10-04_01h08.51.528,Motor Sequence,,2025.1.1,60.116819,2025-10-04 01h09.01.191448 +0530
-150,z,119,3,29,x,0,0.3278329,None,29,3,119,3,,,,,368.2763485,,368.2649323,368.2763485,369.2773641,369.2773641,369.2773641,369.2773641,369.2773641,370.2763261,370.2763261,370.6125555,x,0,0.3278329,None,,,,,5,1,2025-10-04_01h08.51.528,Motor Sequence,,2025.1.1,60.116819,2025-10-04 01h09.01.191448 +0530
-50,x,120,0,30,v,0,0.6958532,None,30,0,120,0,,,,,370.6265105,,370.612914,370.6265105,371.6264207,371.6264207,371.6264207,371.6264207,371.6264207,372.6256659,372.6256659,373.3296354,v,0,0.6958532,None,,,,,5,1,2025-10-04_01h08.51.528,Motor Sequence,,2025.1.1,60.116819,2025-10-04 01h09.01.191448 +0530
150,v,121,1,30,z,0,4.9190772,None,30,1,121,1,,,,,373.3426903,,373.3299838,373.3426903,374.3426383,374.3426383,374.3426383,374.3426383,374.3426383,375.3436412,375.3436412,380.2794439,z,0,4.9190772,None,,,,,5,1,2025-10-04_01h08.51.528,Motor Sequence,,2025.1.1,60.116819,2025-10-04 01h09.01.191448 +0530
50,c,122,2,30,c,1,1.1482721,None,30,2,122,2,,,,,380.2938475,,380.2797641,380.2938475,381.2925135,381.2925135,381.2925135,381.2925135,381.2925135,382.292726,382.292726,383.4474601,c,1,1.1482721,None,,,,,5,1,2025-10-04_01h08.51.528,Motor Sequence,,2025.1.1,60.116819,2025-10-04 01h09.01.191448 +0530
-150,z,123,3,30,x,0,0.2945405,None,30,3,123,3,,,,,383.4600767,,383.4478227,383.4600767,384.4582189,384.4582189,384.4582189,384.4582189,384.4742719,385.4577018,385.4577018,385.7594062,x,0,0.2945405,None,,,,,5,1,2025-10-04_01h08.51.528,Motor Sequence,,2025.1.1,60.116819,2025-10-04 01h09.01.191448 +0530
-50,x,124,0,31,v,0,0.3047738,None,31,0,124,0,,,,,385.7748009,,385.7596272,385.7748009,386.7596874,386.7596874,386.7596874,386.7596874,386.7761987,387.7586665,387.7586665,388.0651898,v,0,0.3047738,None,,,,,5,1,2025-10-04_01h08.51.528,Motor Sequence,,2025.1.1,60.116819,2025-10-04 01h09.01.191448 +0530
150,v,125,1,31,z,0,0.3803942,None,31,1,125,1,,,,,388.077584,,388.0655824,388.077584,389.0753336,389.0753336,389.0753336,389.0753336,389.0753336,390.0757976,390.0757976,390.4637734,z,0,0.3803942,None,,,,,5,1,2025-10-04_01h08.51.528,Motor Sequence,,2025.1.1,60.116819,2025-10-04 01h09.01.191448 +0530
50,c,126,2,31,c,1,0.4017558,None,31,2,126,2,,,,,390.4757446,,390.4641363,390.4757446,391.476093,391.476093,391.476093,391.476093,391.476093,392.4759576,392.4759576,392.8802627,c,1,0.4017558,None,,,,,5,1,2025-10-04_01h08.51.528,Motor Sequence,,2025.1.1,60.116819,2025-10-04 01h09.01.191448 +0530
-150,z,127,3,31,x,0,0.7194807,None,31,3,127,3,,,,,392.8922901,,392.8805845,392.8922901,393.8926181,393.8926181,393.8926181,393.8926181,393.8926181,394.8935142,394.8935142,395.6138819,x,0,0.7194807,None,,,,,5,1,2025-10-04_01h08.51.528,Motor Sequence,,2025.1.1,60.116819,2025-10-04 01h09.01.191448 +0530
-50,x,128,0,32,v,0,0.6740417,None,32,0,128,0,,,,,395.6259591,,395.6142167,395.6259591,396.6255178,396.6255178,396.6255178,396.6255178,396.6255178,397.626504,397.626504,398.3127701,v,0,0.6740417,None,,,,,5,1,2025-10-04_01h08.51.528,Motor Sequence,,2025.1.1,60.116819,2025-10-04 01h09.01.191448 +0530
150,v,129,1,32,z,0,8.3443959,None,32,1,129,1,,,,,398.3258127,,398.3131165,398.3258127,399.3264801,399.3264801,399.3264801,399.3264801,399.3264801,400.3258708,400.3258708,408.6786808,z,0,8.3443959,None,,,,,5,1,2025-10-04_01h08.51.528,Motor Sequence,,2025.1.1,60.116819,2025-10-04 01h09.01.191448 +0530
50,c,130,2,32,c,1,1.1102139,None,32,2,130,2,,,,,408.6926816,,408.6790427,408.6926816,409.6919567,409.6919567,409.6919567,409.6919567,409.6919567,410.6917133,410.6917133,411.8127022,c,1,1.1102139,None,,,,,5,1,2025-10-04_01h08.51.528,Motor Sequence,,2025.1.1,60.116819,2025-10-04 01h09.01.191448 +0530
-150,z,131,3,32,x,0,0.6975954,None,32,3,131,3,,,,,411.8261418,,411.8130582,411.8261418,412.8251312,412.8251312,412.8251312,412.8251312,412.8251312,413.8254322,413.8254322,414.5276817,x,0,0.6975954,None,,,,,5,1,2025-10-04_01h08.51.528,Motor Sequence,,2025.1.1,60.116819,2025-10-04 01h09.01.191448 +0530
-50,x,132,0,33,v,0,0.5905623,None,33,0,132,0,,,,,414.5421561,,414.527955,414.5421561,415.5421698,415.5421698,415.5421698,415.5421698,415.5421698,416.5406828,416.5406828,417.1455862,v,0,0.5905623,None,,,,,5,1,2025-10-04_01h08.51.528,Motor Sequence,,2025.1.1,60.116819,2025-10-04 01h09.01.191448 +0530
150,v,133,1,33,z,0,2.1750098,None,33,1,133,1,,,,,417.1591855,,417.1459957,417.1591855,418.1592159,418.1592159,418.1592159,418.1592159,418.1592159,419.158555,419.158555,421.3466057,z,0,2.1750098,None,,,,,5,1,2025-10-04_01h08.51.528,Motor Sequence,,2025.1.1,60.116819,2025-10-04 01h09.01.191448 +0530
50,c,134,2,33,c,1,0.7575793,None,33,2,134,2,,,,,421.3595542,,421.3470223,421.3595542,422.3587388,422.3587388,422.3587388,422.3587388,422.3587388,423.3585871,423.3585871,424.1287158,c,1,0.7575793,None,,,,,5,1,2025-10-04_01h08.51.528,Motor Sequence,,2025.1.1,60.116819,2025-10-04 01h09.01.191448 +0530
-150,z,135,3,33,x,0,1.9347831,None,33,3,135,3,,,,,424.14166,,424.1291772,424.14166,425.1421468,425.1421468,425.1421468,425.1421468,425.1421468,426.1414725,426.1414725,428.0805732,x,0,1.9347831,None,,,,,5,1,2025-10-04_01h08.51.528,Motor Sequence,,2025.1.1,60.116819,2025-10-04 01h09.01.191448 +0530
-50,x,136,0,34,v,0,1.2543592,None,34,0,136,0,,,,,428.0921506,,428.080934,428.0921506,429.0921639,429.0921639,429.0921639,429.0921639,429.0921639,430.0910616,430.0910616,431.3481681,v,0,1.2543592,None,,,,,5,1,2025-10-04_01h08.51.528,Motor Sequence,,2025.1.1,60.116819,2025-10-04 01h09.01.191448 +0530
150,v,137,1,34,z,0,1.8730769,None,34,1,137,1,,,,,431.3585217,,431.348507,431.3585217,432.3588852,432.3588852,432.3588852,432.3588852,432.3588852,433.3591685,433.3591685,435.2460751,z,0,1.8730769,None,,,,,5,1,2025-10-04_01h08.51.528,Motor Sequence,,2025.1.1,60.116819,2025-10-04 01h09.01.191448 +0530
50,c,138,2,34,c,1,0.3138918,None,34,2,138,2,,,,,435.2588149,,435.2464361,435.2588149,436.2591657,436.2591657,436.2591657,436.2591657,436.2591657,437.2582094,437.2582094,437.5796451,c,1,0.3138918,None,,,,,5,1,2025-10-04_01h08.51.528,Motor Sequence,,2025.1.1,60.116819,2025-10-04 01h09.01.191448 +0530
-150,z,139,3,34,x,0,0.3150111,None,34,3,139,3,,,,,437.5924039,,437.579982,437.5924039,438.5918072,438.5918072,438.5918072,438.5918072,438.5918072,439.5914752,439.5914752,439.9130392,x,0,0.3150111,None,,,,,5,1,2025-10-04_01h08.51.528,Motor Sequence,,2025.1.1,60.116819,2025-10-04 01h09.01.191448 +0530
-50,x,140,0,35,v,0,0.3309781,None,35,0,140,0,,,,,439.9254556,,439.913367,439.9254556,440.9258829,440.9258829,440.9258829,440.9258829,440.9258829,441.925511,441.925511,442.2626673,v,0,0.3309781,None,,,,,5,1,2025-10-04_01h08.51.528,Motor Sequence,,2025.1.1,60.116819,2025-10-04 01h09.01.191448 +0530
150,v,141,1,35,z,0,0.7873246,None,35,1,141,1,,,,,442.2761387,,442.2630023,442.2761387,443.2751076,443.2751076,443.2751076,443.2751076,443.2751076,444.275192,444.275192,445.076609,z,0,0.7873246,None,,,,,5,1,2025-10-04_01h08.51.528,Motor Sequence,,2025.1.1,60.116819,2025-10-04 01h09.01.191448 +0530
50,c,142,2,35,c,1,0.1364148,None,35,2,142,2,,,,,445.0917542,,445.0768282,445.0917542,446.0922268,446.0922268,446.0922268,446.0922268,446.0922268,447.0917212,447.0917212,447.2304537,c,1,0.1364148,None,,,,,5,1,2025-10-04_01h08.51.528,Motor Sequence,,2025.1.1,60.116819,2025-10-04 01h09.01.191448 +0530
-150,z,143,3,35,x,0,0.7410319,None,35,3,143,3,,,,,447.2419285,,447.2308234,447.2419285,448.2422733,448.2422733,448.2422733,448.2422733,448.2422733,449.2417435,449.2417435,449.9966913,x,0,0.7410319,None,,,,,5,1,2025-10-04_01h08.51.528,Motor Sequence,,2025.1.1,60.116819,2025-10-04 01h09.01.191448 +0530
-50,x,144,0,36,v,0,0.2696818,None,36,0,144,0,,,,,450.0089013,,449.9971044,450.0089013,451.010451,451.010451,451.010451,451.010451,451.010451,452.008866,452.008866,452.2812179,v,0,0.2696818,None,,,,,5,1,2025-10-04_01h08.51.528,Motor Sequence,,2025.1.1,60.116819,2025-10-04 01h09.01.191448 +0530
150,v,145,1,36,z,0,0.4887625,None,36,1,145,1,,,,,452.2916823,,452.281588,452.2916823,453.2926162,453.2926162,453.2926162,453.2926162,453.2926162,454.2928756,454.2928756,454.7961603,z,0,0.4887625,None,,,,,5,1,2025-10-04_01h08.51.528,Motor Sequence,,2025.1.1,60.116819,2025-10-04 01h09.01.191448 +0530
50,c,146,2,36,c,1,0.4306958,None,36,2,146,2,,,,,454.8088969,,454.7965219,454.8088969,455.808358,455.808358,455.808358,455.808358,455.808358,456.8086461,456.8086461,457.2469956,c,1,0.4306958,None,,,,,5,1,2025-10-04_01h08.51.528,Motor Sequence,,2025.1.1,60.116819,2025-10-04 01h09.01.191448 +0530
-150,z,147,3,36,x,0,0.3075156,None,36,3,147,3,,,,,457.2582643,,457.2473546,457.2582643,458.2587312,458.2587312,458.2587312,458.2587312,458.2587312,459.2583352,459.2583352,459.5798038,x,0,0.3075156,None,,,,,5,1,2025-10-04_01h08.51.528,Motor Sequence,,2025.1.1,60.116819,2025-10-04 01h09.01.191448 +0530
-50,x,148,0,37,v,0,0.3102516,None,37,0,148,0,,,,,459.5915849,,459.5801488,459.5915849,460.592288,460.592288,460.592288,460.592288,460.592288,461.5918849,461.5918849,461.9122959,v,0,0.3102516,None,,,,,5,1,2025-10-04_01h08.51.528,Motor Sequence,,2025.1.1,60.116819,2025-10-04 01h09.01.191448 +0530
150,v,149,1,37,z,0,0.3532349,None,37,1,149,1,,,,,461.9264704,,461.9126508,461.9264704,462.9248954,462.9248954,462.9248954,462.9248954,462.9248954,463.9258854,463.9258854,464.2803578,z,0,0.3532349,None,,,,,5,1,2025-10-04_01h08.51.528,Motor Sequence,,2025.1.1,60.116819,2025-10-04 01h09.01.191448 +0530
50,c,150,2,37,c,1,0.2834457,None,37,2,150,2,,,,,464.2913254,,464.280796,464.2913254,465.2925739,465.2925739,465.2925739,465.2925739,465.2925739,466.2914599,466.2914599,466.5791939,c,1,0.2834457,None,,,,,5,1,2025-10-04_01h08.51.528,Motor Sequence,,2025.1.1,60.116819,2025-10-04 01h09.01.191448 +0530
-150,z,151,3,37,x,0,0.7436745,None,37,3,151,3,,,,,466.5918026,,466.5795295,466.5918026,467.59238,467.59238,467.59238,467.59238,467.59238,468.5915437,468.5915437,469.342141,x,0,0.7436745,None,,,,,5,1,2025-10-04_01h08.51.528,Motor Sequence,,2025.1.1,60.116819,2025-10-04 01h09.01.191448 +0530
-50,x,152,0,38,v,0,0.3295958,None,38,0,152,0,,,,,469.3570542,,469.3423468,469.3570542,470.3422658,470.3422658,470.3422658,470.3422658,470.3585738,471.3418057,471.3418057,471.6793113,v,0,0.3295958,None,,,,,5,1,2025-10-04_01h08.51.528,Motor Sequence,,2025.1.1,60.116819,2025-10-04 01h09.01.191448 +0530
150,v,153,1,38,z,0,0.3210605,None,38,1,153,1,,,,,471.6916005,,471.6797016,471.6916005,472.6920448,472.6920448,472.6920448,472.6920448,472.6920448,473.6920665,473.6920665,474.013835,z,0,0.3210605,None,,,,,5,1,2025-10-04_01h08.51.528,Motor Sequence,,2025.1.1,60.116819,2025-10-04 01h09.01.191448 +0530
50,c,154,2,38,c,1,0.6095982,None,38,2,154,2,,,,,474.0251485,,474.014186,474.0251485,475.0238594,475.0238594,475.0238594,475.0238594,475.0399976,476.025035,476.025035,476.6429313,c,1,0.6095982,None,,,,,5,1,2025-10-04_01h08.51.528,Motor Sequence,,2025.1.1,60.116819,2025-10-04 01h09.01.191448 +0530
-150,z,155,3,38,x,0,0.2787975,None,38,3,155,3,,,,,476.6575727,,476.6431786,476.6575727,477.6566423,477.6566423,477.6566423,477.6566423,477.6566423,478.6567381,478.6567381,478.9445096,x,0,0.2787975,None,,,,,5,1,2025-10-04_01h08.51.528,Motor Sequence,,2025.1.1,60.116819,2025-10-04 01h09.01.191448 +0530
-50,x,156,0,39,v,0,0.4301004,None,39,0,156,0,,,,,478.9583455,,478.944855,478.9583455,479.9582202,479.9582202,479.9582202,479.9582202,479.9582202,480.9584038,480.9584038,481.3953136,v,0,0.4301004,None,,,,,5,1,2025-10-04_01h08.51.528,Motor Sequence,,2025.1.1,60.116819,2025-10-04 01h09.01.191448 +0530
150,v,157,1,39,z,0,1.4641806,None,39,1,157,1,,,,,481.4085122,,481.3956787,481.4085122,482.4083692,482.4083692,482.4083692,482.4083692,482.4083692,483.408188,483.408188,484.8807593,z,0,1.4641806,None,,,,,5,1,2025-10-04_01h08.51.528,Motor Sequence,,2025.1.1,60.116819,2025-10-04 01h09.01.191448 +0530
50,c,158,2,39,c,1,0.7673568,None,39,2,158,2,,,,,484.8917956,,484.881123,484.8917956,485.8919861,485.8919861,485.8919861,485.8919861,485.8919861,486.8921897,486.8921897,487.6627363,c,1,0.7673568,None,,,,,5,1,2025-10-04_01h08.51.528,Motor Sequence,,2025.1.1,60.116819,2025-10-04 01h09.01.191448 +0530
-150,z,159,3,39,x,0,0.4900562,None,39,3,159,3,,,,,487.6749764,,487.6630633,487.6749764,488.6746838,488.6746838,488.6746838,488.6746838,488.6746838,489.6745792,489.6745792,490.1789495,x,0,0.4900562,None,,,,,5,1,2025-10-04_01h08.51.528,Motor Sequence,,2025.1.1,60.116819,2025-10-04 01h09.01.191448 +0530
-50,x,160,0,40,v,0,0.6972164,None,40,0,160,0,,,,,490.1917783,,490.1794491,490.1917783,491.1914534,491.1914534,491.1914534,491.1914534,491.1914534,492.1918151,492.1918151,492.896165,v,0,0.6972164,None,,,,,5,1,2025-10-04_01h08.51.528,Motor Sequence,,2025.1.1,60.116819,2025-10-04 01h09.01.191448 +0530
150,v,161,1,40,z,0,0.5403965,None,40,1,161,1,,,,,492.9084007,,492.896589,492.9084007,493.9073024,493.9073024,493.9073024,493.9073024,493.9248249,494.9075916,494.9075916,495.4619203,z,0,0.5403965,None,,,,,5,1,2025-10-04_01h08.51.528,Motor Sequence,,2025.1.1,60.116819,2025-10-04 01h09.01.191448 +0530
50,c,162,2,40,c,1,0.7077547,None,40,2,162,2,,,,,495.4746654,,495.4623105,495.4746654,496.4752051,496.4752051,496.4752051,496.4752051,496.4752051,497.4742148,497.4742148,498.1952438,c,1,0.7077547,None,,,,,5,1,2025-10-04_01h08.51.528,Motor Sequence,,2025.1.1,60.116819,2025-10-04 01h09.01.191448 +0530
-150,z,163,3,40,x,0,0.6033879,None,40,3,163,3,,,,,498.2085727,,498.195607,498.2085727,499.2082129,499.2082129,499.2082129,499.2082129,499.2082129,500.2078695,500.2078695,500.8300939,x,0,0.6033879,None,,,,,5,1,2025-10-04_01h08.51.528,Motor Sequence,,2025.1.1,60.116819,2025-10-04 01h09.01.191448 +0530
-50,x,164,0,41,v,0,0.3559047,None,41,0,164,0,,,,,500.8418803,,500.8305052,500.8418803,501.8416914,501.8416914,501.8416914,501.8416914,501.8416914,502.8417632,502.8417632,503.2134337,v,0,0.3559047,None,,,,,5,1,2025-10-04_01h08.51.528,Motor Sequence,,2025.1.1,60.116819,2025-10-04 01h09.01.191448 +0530
150,v,165,1,41,z,0,0.6938112,None,41,1,165,1,,,,,503.2246925,,503.2138486,503.2246925,504.2248934,504.2248934,504.2248934,504.2248934,504.2248934,505.2245306,505.2245306,505.9282031,z,0,0.6938112,None,,,,,5,1,2025-10-04_01h08.51.528,Motor Sequence,,2025.1.1,60.116819,2025-10-04 01h09.01.191448 +0530
50,c,166,2,41,c,1,0.2923505,None,41,2,166,2,,,,,505.9416726,,505.9285247,505.9416726,506.941686,506.941686,506.941686,506.941686,506.941686,507.9413666,507.9413666,508.2449111,c,1,0.2923505,None,,,,,5,1,2025-10-04_01h08.51.528,Motor Sequence,,2025.1.1,60.116819,2025-10-04 01h09.01.191448 +0530
-150,z,167,3,41,x,0,0.2521468,None,41,3,167,3,,,,,508.2578597,,508.2452876,508.2578597,509.2578901,509.2578901,509.2578901,509.2578901,509.2578901,510.2579092,510.2579092,510.5130596,x,0,0.2521468,None,,,,,5,1,2025-10-04_01h08.51.528,Motor Sequence,,2025.1.1,60.116819,2025-10-04 01h09.01.191448 +0530
-50,x,168,0,42,v,0,0.0143585,None,42,0,168,0,,,,,510.5249992,,510.5134114,510.5249992,511.5249166,511.5249166,511.5249166,511.5249166,511.5249166,512.5241237,512.5241237,512.5459375,v,0,0.0143585,None,,,,,5,1,2025-10-04_01h08.51.528,Motor Sequence,,2025.1.1,60.116819,2025-10-04 01h09.01.191448 +0530
150,v,169,1,42,z,0,0.2928482,None,42,1,169,1,,,,,512.5579134,,512.5463147,512.5579134,513.5576473,513.5576473,513.5576473,513.5576473,513.5576473,514.5577096,514.5577096,514.8614007,z,0,0.2928482,None,,,,,5,1,2025-10-04_01h08.51.528,Motor Sequence,,2025.1.1,60.116819,2025-10-04 01h09.01.191448 +0530
50,c,170,2,42,c,1,0.0683049,None,42,2,170,2,,,,,514.8758129,,514.8617605,514.8758129,515.8751806,515.8751806,515.8751806,515.8751806,515.8918204,516.8747465,516.8747465,516.9457255,c,1,0.0683049,None,,,,,5,1,2025-10-04_01h08.51.528,Motor Sequence,,2025.1.1,60.116819,2025-10-04 01h09.01.191448 +0530
-150,z,171,3,42,x,0,3.4144329,None,42,3,171,3,,,,,516.9585033,,516.9460631,516.9585033,517.9578492,517.9578492,517.9578492,517.9578492,517.9578492,518.9576852,518.9576852,522.3760912,x,0,3.4144329,None,,,,,5,1,2025-10-04_01h08.51.528,Motor Sequence,,2025.1.1,60.116819,2025-10-04 01h09.01.191448 +0530
-50,x,172,0,43,v,0,0.2635696,None,43,0,172,0,,,,,522.3903063,,522.3764217,522.3903063,523.3746809,523.3746809,523.3746809,523.3746809,523.3903034,524.3913285,524.3913285,524.6625131,v,0,0.2635696,None,,,,,5,1,2025-10-04_01h08.51.528,Motor Sequence,,2025.1.1,60.116819,2025-10-04 01h09.01.191448 +0530
150,v,173,1,43,z,0,2.6131116,None,43,1,173,1,,,,,524.675367,,524.6628874,524.675367,525.6729097,525.6729097,525.6729097,525.6729097,525.6729097,526.6741246,526.6741246,529.2953054,z,0,2.6131116,None,,,,,5,1,2025-10-04_01h08.51.528,Motor Sequence,,2025.1.1,60.116819,2025-10-04 01h09.01.191448 +0530
50,c,174,2,43,c,1,0.3694463,None,43,2,174,2,,,,,529.3078213,,529.2957023,529.3078213,530.3075292,530.3075292,530.3075292,530.3075292,530.3075292,531.306992,531.306992,531.6800331,c,1,0.3694463,None,,,,,5,1,2025-10-04_01h08.51.528,Motor Sequence,,2025.1.1,60.116819,2025-10-04 01h09.01.191448 +0530
-150,z,175,3,43,x,0,0.2847455,None,43,3,175,3,,,,,531.690841,,531.6803831,531.690841,532.6911067,532.6911067,532.6911067,532.6911067,532.6911067,533.690658,533.690658,533.9790564,x,0,0.2847455,None,,,,,5,1,2025-10-04_01h08.51.528,Motor Sequence,,2025.1.1,60.116819,2025-10-04 01h09.01.191448 +0530
-50,x,176,0,44,v,0,0.4474576,None,44,0,176,0,,,,,533.9909089,,533.9793866,533.9909089,534.9906358,534.9906358,534.9906358,534.9906358,534.9906358,535.9902774,535.9902774,536.4456081,v,0,0.4474576,None,,,,,5,1,2025-10-04_01h08.51.528,Motor Sequence,,2025.1.1,60.116819,2025-10-04 01h09.01.191448 +0530
150,v,177,1,44,z,0,0.4730052,None,44,1,177,1,,,,,536.4577885,,536.4459264,536.4577885,537.4571499,537.4571499,537.4571499,537.4571499,537.4571499,538.4572841,538.4572841,538.9449206,z,0,0.4730052,None,,,,,5,1,2025-10-04_01h08.51.528,Motor Sequence,,2025.1.1,60.116819,2025-10-04 01h09.01.191448 +0530
50,c,178,2,44,c,1,0.5555178,None,44,2,178,2,,,,,538.9578815,,538.9452581,538.9578815,539.9577178,539.9577178,539.9577178,539.9577178,539.9577178,540.957831,540.957831,541.5276416,c,1,0.5555178,None,,,,,5,1,2025-10-04_01h08.51.528,Motor Sequence,,2025.1.1,60.116819,2025-10-04 01h09.01.191448 +0530
-150,z,179,3,44,x,0,1.0459282,None,44,3,179,3,,,,,541.5426159,,541.5279917,541.5426159,542.5417547,542.5417547,542.5417547,542.5417547,542.5573335,543.5407711,543.5407711,544.5949995,x,0,1.0459282,None,,,,,5,1,2025-10-04_01h08.51.528,Motor Sequence,,2025.1.1,60.116819,2025-10-04 01h09.01.191448 +0530
-50,x,180,0,45,v,0,0.2586172,None,45,0,180,0,,,,,544.6075053,,544.5953393,544.6075053,545.607471,545.607471,545.607471,545.607471,545.607471,546.6071444,546.6071444,546.8777355,v,0,0.2586172,None,,,,,5,1,2025-10-04_01h08.51.528,Motor Sequence,,2025.1.1,60.116819,2025-10-04 01h09.01.191448 +0530
150,v,181,1,45,z,0,0.661416,None,45,1,181,1,,,,,546.8912512,,546.8780965,546.8912512,547.8895977,547.8895977,547.8895977,547.8895977,547.8895977,548.8902813,548.8902813,549.5608425,z,0,0.661416,None,,,,,5,1,2025-10-04_01h08.51.528,Motor Sequence,,2025.1.1,60.116819,2025-10-04 01h09.01.191448 +0530
50,c,182,2,45,c,1,0.5688739,None,45,2,182,2,,,,,549.5743379,,549.561209,549.5743379,550.5745255,550.5745255,550.5745255,550.5745255,550.5745255,551.5738371,551.5738371,552.1448924,c,1,0.5688739,None,,,,,5,1,2025-10-04_01h08.51.528,Motor Sequence,,2025.1.1,60.116819,2025-10-04 01h09.01.191448 +0530
-150,z,183,3,45,x,0,0.2887183,None,45,3,183,3,,,,,552.1578617,,552.1452213,552.1578617,553.1572384,553.1572384,553.1572384,553.1572384,553.1572384,554.1576658,554.1576658,554.4619075,x,0,0.2887183,None,,,,,5,1,2025-10-04_01h08.51.528,Motor Sequence,,2025.1.1,60.116819,2025-10-04 01h09.01.191448 +0530
-50,x,184,0,46,v,0,0.396597,None,46,0,184,0,,,,,554.4745426,,554.4622188,554.4745426,555.4740754,555.4740754,555.4740754,555.4740754,555.4740754,556.4744359,556.4744359,556.8793637,v,0,0.396597,None,,,,,5,1,2025-10-04_01h08.51.528,Motor Sequence,,2025.1.1,60.116819,2025-10-04 01h09.01.191448 +0530
150,v,185,1,46,z,0,1.8821146,None,46,1,185,1,,,,,556.8906806,,556.8797154,556.8906806,557.8911847,557.8911847,557.8911847,557.8911847,557.8911847,558.8906442,558.8906442,560.7791482,z,0,1.8821146,None,,,,,5,1,2025-10-04_01h08.51.528,Motor Sequence,,2025.1.1,60.116819,2025-10-04 01h09.01.191448 +0530
50,c,186,2,46,c,1,0.5529176,None,46,2,186,2,,,,,560.7910503,,560.7795005,560.7910503,561.7906078,561.7906078,561.7906078,561.7906078,561.7906078,562.7904537,562.7904537,563.345331,c,1,0.5529176,None,,,,,5,1,2025-10-04_01h08.51.528,Motor Sequence,,2025.1.1,60.116819,2025-10-04 01h09.01.191448 +0530
-150,z,187,3,46,x,0,1.4258725,None,46,3,187,3,,,,,563.3572691,,563.3457094,563.3572691,564.3575743,564.3575743,564.3575743,564.3575743,564.3575743,565.3565657,565.3565657,566.7950813,x,0,1.4258725,None,,,,,5,1,2025-10-04_01h08.51.528,Motor Sequence,,2025.1.1,60.116819,2025-10-04 01h09.01.191448 +0530
-50,x,188,0,47,v,0,1.1264308,None,47,0,188,0,,,,,566.8073021,,566.7954543,566.8073021,567.8075914,567.8075914,567.8075914,567.8075914,567.8075914,568.8075793,568.8075793,569.9452878,v,0,1.1264308,None,,,,,5,1,2025-10-04_01h08.51.528,Motor Sequence,,2025.1.1,60.116819,2025-10-04 01h09.01.191448 +0530
150,v,189,1,47,z,0,3.8120483,None,47,1,189,1,,,,,569.9577295,,569.9456926,569.9577295,570.9572653,570.9572653,570.9572653,570.9572653,570.9572653,571.9576291,571.9576291,575.7783988,z,0,3.8120483,None,,,,,5,1,2025-10-04_01h08.51.528,Motor Sequence,,2025.1.1,60.116819,2025-10-04 01h09.01.191448 +0530
50,c,190,2,47,c,1,1.3161732,None,47,2,190,2,,,,,575.7914433,,575.7788548,575.7914433,576.7903237,576.7903237,576.7903237,576.7903237,576.7903237,577.790238,577.790238,579.1125772,c,1,1.3161732,None,,,,,5,1,2025-10-04_01h08.51.528,Motor Sequence,,2025.1.1,60.116819,2025-10-04 01h09.01.191448 +0530
-150,z,191,3,47,x,0,2.6911031,None,47,3,191,3,,,,,579.1242624,,579.1129536,579.1242624,580.1245237,580.1245237,580.1245237,580.1245237,580.1245237,581.1230242,581.1230242,583.8274326,x,0,2.6911031,None,,,,,5,1,2025-10-04_01h08.51.528,Motor Sequence,,2025.1.1,60.116819,2025-10-04 01h09.01.191448 +0530
-50,x,192,0,48,v,0,0.9787751,None,48,0,192,0,,,,,583.841569,,583.8277972,583.841569,584.8401434,584.8401434,584.8401434,584.8401434,584.8401434,585.8404444,585.8404444,586.8267013,v,0,0.9787751,None,,,,,5,1,2025-10-04_01h08.51.528,Motor Sequence,,2025.1.1,60.116819,2025-10-04 01h09.01.191448 +0530
150,v,193,1,48,z,0,0.4390488,None,48,1,193,1,,,,,586.8410111,,586.8269856,586.8410111,587.8405649,587.8405649,587.8405649,587.8405649,587.8405649,588.840546,588.840546,589.2937713,z,0,0.4390488,None,,,,,5,1,2025-10-04_01h08.51.528,Motor Sequence,,2025.1.1,60.116819,2025-10-04 01h09.01.191448 +0530
50,c,194,2,48,c,1,0.1844488,None,48,2,194,2,,,,,589.3070317,,589.2940874,589.3070317,590.3068963,590.3068963,590.3068963,590.3068963,590.3068963,591.3071883,591.3071883,591.4953615,c,1,0.1844488,None,,,,,5,1,2025-10-04_01h08.51.528,Motor Sequence,,2025.1.1,60.116819,2025-10-04 01h09.01.191448 +0530
-150,z,195,3,48,x,0,0.2842938,None,48,3,195,3,,,,,591.5071229,,591.4957885,591.5071229,592.5074457,592.5074457,592.5074457,592.5074457,592.5074457,593.5075744,593.5075744,593.7964261,x,0,0.2842938,None,,,,,5,1,2025-10-04_01h08.51.528,Motor Sequence,,2025.1.1,60.116819,2025-10-04 01h09.01.191448 +0530
-50,x,196,0,49,v,0,0.7003598,None,49,0,196,0,,,,,593.8071432,,593.796837,593.8071432,594.8073661,594.8073661,594.8073661,594.8073661,594.8073661,595.8068195,595.8068195,596.5114265,v,0,0.7003598,None,,,,,5,1,2025-10-04_01h08.51.528,Motor Sequence,,2025.1.1,60.116819,2025-10-04 01h09.01.191448 +0530
150,v,197,1,49,z,0,0.3070971,None,49,1,197,1,,,,,596.5240439,,596.511767,596.5240439,597.5236241,597.5236241,597.5236241,597.5236241,597.5236241,598.5237008,598.5237008,598.8456357,z,0,0.3070971,None,,,,,5,1,2025-10-04_01h08.51.528,Motor Sequence,,2025.1.1,60.116819,2025-10-04 01h09.01.191448 +0530
50,c,198,2,49,c,1,3.9327035,None,49,2,198,2,,,,,598.8562736,,598.8461194,598.8562736,599.8576844,599.8576844,599.8576844,599.8576844,599.8576844,600.8569729,600.8569729,604.7953449,c,1,3.9327035,None,,,,,5,1,2025-10-04_01h08.51.528,Motor Sequence,,2025.1.1,60.116819,2025-10-04 01h09.01.191448 +0530
-150,z,199,3,49,x,0,1.0727872,None,49,3,199,3,,,,,604.8074987,,604.7956882,604.8074987,605.8069401,605.8069401,605.8069401,605.8069401,605.8069401,606.8064416,606.8064416,607.8931982,x,0,1.0727872,None,,,,,5,1,2025-10-04_01h08.51.528,Motor Sequence,,2025.1.1,60.116819,2025-10-04 01h09.01.191448 +0530
-50,x,0,0,0,v,0,0.6299353,None,,,,,0,0,0,0,607.9232402,,607.9093054,607.9232402,608.9062846,608.9062846,608.9062846,608.9062846,608.9237412,609.9068298,609.9068298,610.5438036,,,,,v,0,0.6299353,None,5,1,2025-10-04_01h08.51.528,Motor Sequence,,2025.1.1,60.116819,2025-10-04 01h09.01.191448 +0530
150,v,1,1,0,z,0,0.742867,None,,,,,0,1,1,1,610.5574828,,610.5441888,610.5574828,611.5567973,611.5567973,611.5567973,611.5567973,611.5567973,612.555309,612.555309,613.3117085,,,,,z,0,0.742867,None,5,1,2025-10-04_01h08.51.528,Motor Sequence,,2025.1.1,60.116819,2025-10-04 01h09.01.191448 +0530
50,c,2,2,0,c,1,0.8496016,None,,,,,0,2,2,2,613.3242664,,613.312124,613.3242664,614.3222011,614.3222011,614.3222011,614.3222011,614.3387849,615.3221392,615.3221392,616.1769482,,,,,c,1,0.8496016,None,5,1,2025-10-04_01h08.51.528,Motor Sequence,,2025.1.1,60.116819,2025-10-04 01h09.01.191448 +0530
-150,z,3,3,0,x,0,0.0547228,None,,,,,0,3,3,3,616.1899469,,616.177259,616.1899469,617.188351,617.188351,617.188351,617.188351,617.188351,618.1890289,618.1890289,618.2614165,,,,,x,0,0.0547228,None,5,1,2025-10-04_01h08.51.528,Motor Sequence,,2025.1.1,60.116819,2025-10-04 01h09.01.191448 +0530
50,c,4,0,1,c,1,2.0989388,None,,,,,1,0,4,2,618.2737211,,618.2617423,618.2737211,619.272165,619.272165,619.272165,619.272165,619.2885342,620.2735554,620.2735554,622.3777352,,,,,c,1,2.0989388,None,5,1,2025-10-04_01h08.51.528,Motor Sequence,,2025.1.1,60.116819,2025-10-04 01h09.01.191448 +0530
-150,z,5,1,1,x,0,1.2282498,None,,,,,1,1,5,3,622.3901602,,622.3780695,622.3901602,623.389597,623.389597,623.389597,623.389597,623.389597,624.3909279,624.3909279,625.6271957,,,,,x,0,1.2282498,None,5,1,2025-10-04_01h08.51.528,Motor Sequence,,2025.1.1,60.116819,2025-10-04 01h09.01.191448 +0530
150,v,6,2,1,x,0,1.3209047,None,,,,,1,2,6,1,625.6407558,,625.627592,625.6407558,626.6396997,626.6396997,626.6396997,626.6396997,626.6396997,627.6398373,627.6398373,628.9762753,,,,,x,0,1.3209047,None,5,1,2025-10-04_01h08.51.528,Motor Sequence,,2025.1.1,60.116819,2025-10-04 01h09.01.191448 +0530
-50,x,7,3,1,v,0,0.9756258,None,,,,,1,3,7,0,628.9905521,,628.9765433,628.9905521,629.9893433,629.9893433,629.9893433,629.9893433,629.9893433,630.9896758,630.9896758,631.9758202,,,,,v,0,0.9756258,None,5,1,2025-10-04_01h08.51.528,Motor Sequence,,2025.1.1,60.116819,2025-10-04 01h09.01.191448 +0530
150,v,8,0,2,z,0,4.0855348,None,,,,,2,0,8,1,631.9904899,,631.9760878,631.9904899,632.9897807,632.9897807,632.9897807,632.9897807,632.9897807,633.9899111,633.9899111,638.0759723,,,,,z,0,4.0855348,None,5,1,2025-10-04_01h08.51.528,Motor Sequence,,2025.1.1,60.116819,2025-10-04 01h09.01.191448 +0530
50,c,9,1,2,c,1,3.2192285,None,,,,,2,1,9,2,638.0889952,,638.0762557,638.0889952,639.0897872,639.0897872,639.0897872,639.0897872,639.0897872,640.0900516,640.0900516,643.3111873,,,,,c,1,3.2192285,None,5,1,2025-10-04_01h08.51.528,Motor Sequence,,2025.1.1,60.116819,2025-10-04 01h09.01.191448 +0530
-150,z,10,2,2,x,0,0.561294,None,,,,,2,2,10,3,643.3236531,,643.3115494,643.3236531,644.3235508,644.3235508,644.3235508,644.3235508,644.3235508,645.3226155,645.3226155,645.8957875,,,,,x,0,0.561294,None,5,1,2025-10-04_01h08.51.528,Motor Sequence,,2025.1.1,60.116819,2025-10-04 01h09.01.191448 +0530
-50,x,11,3,2,v,0,0.6332363,None,,,,,2,3,11,0,645.9063423,,645.89617,645.9063423,646.9052441,646.9052441,646.9052441,646.9052441,646.9052441,647.906632,647.906632,648.5443336,,,,,v,0,0.6332363,None,5,1,2025-10-04_01h08.51.528,Motor Sequence,,2025.1.1,60.116819,2025-10-04 01h09.01.191448 +0530
-150,z,12,0,3,x,0,0.8668638,None,,,,,3,0,12,3,648.5574518,,648.5446999,648.5574518,649.5572064,649.5572064,649.5572064,649.5572064,649.5572064,650.5567631,650.5567631,651.4282646,,,,,x,0,0.8668638,None,5,1,2025-10-04_01h08.51.528,Motor Sequence,,2025.1.1,60.116819,2025-10-04 01h09.01.191448 +0530
150,v,13,1,3,v,1,0.4238287,None,,,,,3,1,13,1,651.4394108,,651.4287685,651.4394108,652.4401732,652.4401732,652.4401732,652.4401732,652.4401732,653.4394185,653.4394185,653.8773088,,,,,v,1,0.4238287,None,5,1,2025-10-04_01h08.51.528,Motor Sequence,,2025.1.1,60.116819,2025-10-04 01h09.01.191448 +0530
-50,x,14,2,3,x,1,5.8889992,None,,,,,3,2,14,0,653.8899548,,653.8777131,653.8899548,654.8900688,654.8900688,654.8900688,654.8900688,654.8900688,655.8898888,655.8898888,661.7946182,,,,,x,1,5.8889992,None,5,1,2025-10-04_01h08.51.528,Motor Sequence,,2025.1.1,60.116819,2025-10-04 01h09.01.191448 +0530
50,c,15,3,3,c,1,0.5626927,None,,,,,3,3,15,2,661.8061804,,661.7949855,661.8061804,662.8064808,662.8064808,662.8064808,662.8064808,662.8064808,663.8066649,663.8066649,664.3773837,,,,,c,1,0.5626927,None,5,1,2025-10-04_01h08.51.528,Motor Sequence,,2025.1.1,60.116819,2025-10-04 01h09.01.191448 +0530
-150,z,16,0,4,x,0,2.086619,None,,,,,4,0,16,3,664.3893172,,664.3777448,664.3893172,665.3897605,665.3897605,665.3897605,665.3897605,665.3897605,666.3896769,666.3896769,668.4783712,,,,,x,0,2.086619,None,5,1,2025-10-04_01h08.51.528,Motor Sequence,,2025.1.1,60.116819,2025-10-04 01h09.01.191448 +0530
-50,x,17,1,4,x,1,0.5687075,None,,,,,4,1,17,0,668.4896994,,668.4787437,668.4896994,669.4902867,669.4902867,669.4902867,669.4902867,669.4902867,670.489242,670.489242,671.0609757,,,,,x,1,0.5687075,None,5,1,2025-10-04_01h08.51.528,Motor Sequence,,2025.1.1,60.116819,2025-10-04 01h09.01.191448 +0530
150,v,18,2,4,x,0,0.7626196,None,,,,,4,2,18,1,671.072724,,671.0612954,671.072724,672.0737748,672.0737748,672.0737748,672.0737748,672.0737748,673.072329,673.072329,673.8436654,,,,,x,0,0.7626196,None,5,1,2025-10-04_01h08.51.528,Motor Sequence,,2025.1.1,60.116819,2025-10-04 01h09.01.191448 +0530
50,c,19,3,4,c,1,1.7696757,None,,,,,4,3,19,2,673.8566283,,673.8440385,673.8566283,674.856123,674.856123,674.856123,674.856123,674.856123,675.8555801,675.8555801,677.628732,,,,,c,1,1.7696757,None,5,1,2025-10-04_01h08.51.528,Motor Sequence,,2025.1.1,60.116819,2025-10-04 01h09.01.191448 +0530
150,v,20,0,5,z,0,2.0243368,None,,,,,5,0,20,1,677.6394968,,677.6291258,677.6394968,678.6396916,678.6396916,678.6396916,678.6396916,678.6396916,679.6388551,679.6388551,681.6764435,,,,,z,0,2.0243368,None,5,1,2025-10-04_01h08.51.528,Motor Sequence,,2025.1.1,60.116819,2025-10-04 01h09.01.191448 +0530
-50,x,21,1,5,v,0,1.5500204,None,,,,,5,1,21,0,681.6895552,,681.6768241,681.6895552,682.6893596,682.6893596,682.6893596,682.6893596,682.6893596,683.6888758,683.6888758,685.2451931,,,,,v,0,1.5500204,None,5,1,2025-10-04_01h08.51.528,Motor Sequence,,2025.1.1,60.116819,2025-10-04 01h09.01.191448 +0530
-150,z,22,2,5,x,0,0.4970716,None,,,,,5,2,22,3,685.2556338,,685.245548,685.2556338,686.2564307,686.2564307,686.2564307,686.2564307,686.2564307,687.256329,687.256329,687.7609858,,,,,x,0,0.4970716,None,5,1,2025-10-04_01h08.51.528,Motor Sequence,,2025.1.1,60.116819,2025-10-04 01h09.01.191448 +0530
50,c,23,3,5,c,1,1.0943683,None,,,,,5,3,23,2,687.7727224,,687.7613277,687.7727224,688.7726071,688.7726071,688.7726071,688.7726071,688.7726071,689.7726873,689.7726873,690.8737469,,,,,c,1,1.0943683,None,5,1,2025-10-04_01h08.51.528,Motor Sequence,,2025.1.1,60.116819,2025-10-04 01h09.01.191448 +0530
-150,z,24,0,6,x,0,12.6482048,None,,,,,6,0,24,3,690.8892165,,690.8739863,690.8892165,691.8732332,691.8732332,691.8732332,691.8732332,691.8888957,692.8727713,692.8727713,705.5292056,,,,,x,0,12.6482048,None,5,1,2025-10-04_01h08.51.528,Motor Sequence,,2025.1.1,60.116819,2025-10-04 01h09.01.191448 +0530
50,c,25,1,6,c,1,1.7232371,None,,,,,6,1,25,2,705.5387633,,705.5296122,705.5387633,706.5396357,706.5396357,706.5396357,706.5396357,706.5396357,707.5392295,707.5392295,709.2773571,,,,,c,1,1.7232371,None,5,1,2025-10-04_01h08.51.528,Motor Sequence,,2025.1.1,60.116819,2025-10-04 01h09.01.191448 +0530
150,v,26,2,6,z,0,2.2679649,None,,,,,6,2,26,1,709.2891741,,709.2777063,709.2891741,710.2895377,710.2895377,710.2895377,710.2895377,710.2895377,711.2893333,711.2893333,713.5764854,,,,,z,0,2.2679649,None,5,1,2025-10-04_01h08.51.528,Motor Sequence,,2025.1.1,60.116819,2025-10-04 01h09.01.191448 +0530
-50,x,27,3,6,v,0,5.7845346,None,,,,,6,3,27,0,713.5906515,,713.5768613,713.5906515,714.5890863,714.5890863,714.5890863,714.5890863,714.5890863,715.5893461,715.5893461,721.3764686,,,,,v,0,5.7845346,None,5,1,2025-10-04_01h08.51.528,Motor Sequence,,2025.1.1,60.116819,2025-10-04 01h09.01.191448 +0530
150,v,28,0,7,z,0,0.9348068,None,,,,,7,0,28,1,721.3889822,,721.3768414,721.3889822,722.389229,722.389229,722.389229,722.389229,722.389229,723.3887832,723.3887832,724.3275979,,,,,z,0,0.9348068,None,5,1,2025-10-04_01h08.51.528,Motor Sequence,,2025.1.1,60.116819,2025-10-04 01h09.01.191448 +0530
-50,x,29,1,7,v,0,1.0043235,None,,,,,7,1,29,0,724.3392255,,724.3279841,724.3392255,725.3384618,725.3384618,725.3384618,725.3384618,725.3384618,726.3390486,726.3390486,727.3588743,,,,,v,0,1.0043235,None,5,1,2025-10-04_01h08.51.528,Motor Sequence,,2025.1.1,60.116819,2025-10-04 01h09.01.191448 +0530
-150,z,30,2,7,x,0,1.8174668,None,,,,,7,2,30,3,727.3732963,,727.3593554,727.3732963,728.3726933,728.3726933,728.3726933,728.3726933,728.3893145,729.3726687,729.3726687,731.1933857,,,,,x,0,1.8174668,None,5,1,2025-10-04_01h08.51.528,Motor Sequence,,2025.1.1,60.116819,2025-10-04 01h09.01.191448 +0530
50,c,31,3,7,c,1,2.5048584,None,,,,,7,3,31,2,731.2056423,,731.1937479,731.2056423,732.2056787,732.2056787,732.2056787,732.2056787,732.2056787,733.2051824,733.2051824,735.7110732,,,,,c,1,2.5048584,None,5,1,2025-10-04_01h08.51.528,Motor Sequence,,2025.1.1,60.116819,2025-10-04 01h09.01.191448 +0530
-50,x,32,0,8,v,0,1.0982042,None,,,,,8,0,32,0,735.7224061,,735.7114551,735.7224061,736.7228949,736.7228949,736.7228949,736.7228949,736.7228949,737.7223997,737.7223997,738.8268236,,,,,v,0,1.0982042,None,5,1,2025-10-04_01h08.51.528,Motor Sequence,,2025.1.1,60.116819,2025-10-04 01h09.01.191448 +0530
150,v,33,1,8,z,0,4.6965599,None,,,,,8,1,33,1,738.8393501,,738.8272123,738.8393501,739.8398382,739.8398382,739.8398382,739.8398382,739.8553264,740.838663,740.838663,745.5426475,,,,,z,0,4.6965599,None,5,1,2025-10-04_01h08.51.528,Motor Sequence,,2025.1.1,60.116819,2025-10-04 01h09.01.191448 +0530
50,c,34,2,8,c,1,1.9412898,None,,,,,8,2,34,2,745.5556415,,745.5430017,745.5556415,746.5555646,746.5555646,746.5555646,746.5555646,746.5555646,747.5554726,747.5554726,749.5088727,,,,,c,1,1.9412898,None,5,1,2025-10-04_01h08.51.528,Motor Sequence,,2025.1.1,60.116819,2025-10-04 01h09.01.191448 +0530
-150,z,35,3,8,x,0,0.9854832,None,,,,,8,3,35,3,749.5234794,,749.5092575,749.5234794,750.5225441,750.5225441,750.5225441,750.5225441,750.5387507,751.521694,751.521694,752.5103188,,,,,x,0,0.9854832,None,5,1,2025-10-04_01h08.51.528,Motor Sequence,,2025.1.1,60.116819,2025-10-04 01h09.01.191448 +0530
50,c,36,0,9,c,1,2.6717928,None,,,,,9,0,36,2,752.5224366,,752.510667,752.5224366,753.5226613,753.5226613,753.5226613,753.5226613,753.5226613,754.5225388,754.5225388,757.2099918,,,,,c,1,2.6717928,None,5,1,2025-10-04_01h08.51.528,Motor Sequence,,2025.1.1,60.116819,2025-10-04 01h09.01.191448 +0530
150,v,37,1,9,z,0,2.0808155,None,,,,,9,1,37,1,757.2222695,,757.2104942,757.2222695,758.2224999,758.2224999,758.2224999,758.2224999,758.2224999,759.2220326,759.2220326,761.309857,,,,,z,0,2.0808155,None,5,1,2025-10-04_01h08.51.528,Motor Sequence,,2025.1.1,60.116819,2025-10-04 01h09.01.191448 +0530
-150,z,38,2,9,x,0,1.3425061,None,,,,,9,2,38,3,761.321767,,761.3102003,761.321767,762.3214836,762.3214836,762.3214836,762.3214836,762.3214836,763.3231121,763.3231121,764.6754058,,,,,x,0,1.3425061,None,5,1,2025-10-04_01h08.51.528,Motor Sequence,,2025.1.1,60.116819,2025-10-04 01h09.01.191448 +0530
-50,x,39,3,9,v,0,2.2258936,None,,,,,9,3,39,0,764.6888085,,764.6757561,764.6888085,765.6888243,765.6888243,765.6888243,765.6888243,765.6888243,766.6881513,766.6881513,768.926326,,,,,v,0,2.2258936,None,5,1,2025-10-04_01h08.51.528,Motor Sequence,,2025.1.1,60.116819,2025-10-04 01h09.01.191448 +0530
-150,z,40,0,10,x,0,1.4136332,None,,,,,10,0,40,3,768.9386238,,768.9267042,768.9386238,769.9378126,769.9378126,769.9378126,769.9378126,769.9378126,770.9382755,770.9382755,772.3599188,,,,,x,0,1.4136332,None,5,1,2025-10-04_01h08.51.528,Motor Sequence,,2025.1.1,60.116819,2025-10-04 01h09.01.191448 +0530
-50,x,41,1,10,v,0,1.0622639,None,,,,,10,1,41,0,772.3714525,,772.3603032,772.3714525,773.3725969,773.3725969,773.3725969,773.3725969,773.3725969,774.371437,774.371437,775.4417653,,,,,v,0,1.0622639,None,5,1,2025-10-04_01h08.51.528,Motor Sequence,,2025.1.1,60.116819,2025-10-04 01h09.01.191448 +0530
50,c,42,2,10,c,1,14.5699322,None,,,,,10,2,42,2,775.4562291,,775.442112,775.4562291,776.4553049,776.4553049,776.4553049,776.4553049,776.4553049,777.455163,777.455163,792.0261151,,,,,c,1,14.5699322,None,5,1,2025-10-04_01h08.51.528,Motor Sequence,,2025.1.1,60.116819,2025-10-04 01h09.01.191448 +0530
150,v,43,3,10,z,0,1.1298595,None,,,,,10,3,43,1,792.0384855,,792.0265352,792.0384855,793.0387131,793.0387131,793.0387131,793.0387131,793.0387131,794.0384762,794.0384762,795.1761276,,,,,z,0,1.1298595,None,5,1,2025-10-04_01h08.51.528,Motor Sequence,,2025.1.1,60.116819,2025-10-04 01h09.01.191448 +0530
-50,x,44,0,11,v,0,1.3355339,None,,,,,11,0,44,0,795.1887868,,795.1766311,795.1887868,796.1877827,796.1877827,796.1877827,796.1877827,796.1877827,797.1881762,797.1881762,798.5273251,,,,,v,0,1.3355339,None,5,1,2025-10-04_01h08.51.528,Motor Sequence,,2025.1.1,60.116819,2025-10-04 01h09.01.191448 +0530
50,c,45,1,11,c,1,1.2003415,None,,,,,11,1,45,2,798.5378916,,798.5276984,798.5378916,799.5383266,799.5383266,799.5383266,799.5383266,799.5383266,800.538444,800.538444,801.7458666,,,,,c,1,1.2003415,None,5,1,2025-10-04_01h08.51.528,Motor Sequence,,2025.1.1,60.116819,2025-10-04 01h09.01.191448 +0530
-150,z,46,2,11,x,0,2.8681023,None,,,,,11,2,46,3,801.7550432,,801.7463134,801.7550432,802.7549627,802.7549627,802.7549627,802.7549627,802.7549627,803.7544644,803.7544644,806.6252863,,,,,x,0,2.8681023,None,5,1,2025-10-04_01h08.51.528,Motor Sequence,,2025.1.1,60.116819,2025-10-04 01h09.01.191448 +0530
150,v,47,3,11,z,0,1.9764333,None,,,,,11,3,47,1,806.6382913,,806.6256504,806.6382913,807.6374984,807.6374984,807.6374984,807.6374984,807.6374984,808.6382771,808.6382771,810.6247984,,,,,z,0,1.9764333,None,5,1,2025-10-04_01h08.51.528,Motor Sequence,,2025.1.1,60.116819,2025-10-04 01h09.01.191448 +0530
150,v,48,0,12,z,0,0.9105759,None,,,,,12,0,48,1,810.63843,,810.6251587,810.63843,811.6384309,811.6384309,811.6384309,811.6384309,811.6384309,812.6381994,812.6381994,813.5582847,,,,,z,0,0.9105759,None,5,1,2025-10-04_01h08.51.528,Motor Sequence,,2025.1.1,60.116819,2025-10-04 01h09.01.191448 +0530
50,c,49,1,12,c,1,3.6728505,None,,,,,12,1,49,2,813.5716524,,813.558662,813.5716524,814.5711476,814.5711476,814.5711476,814.5711476,814.5711476,815.5715815,815.5715815,819.2595436,,,,,c,1,3.6728505,None,5,1,2025-10-04_01h08.51.528,Motor Sequence,,2025.1.1,60.116819,2025-10-04 01h09.01.191448 +0530
-50,x,50,2,12,v,0,0.8615478,None,,,,,12,2,50,0,819.2715294,,819.2599517,819.2715294,820.2712809,820.2712809,820.2712809,820.2712809,820.2712809,821.271174,821.271174,822.1413169,,,,,v,0,0.8615478,None,5,1,2025-10-04_01h08.51.528,Motor Sequence,,2025.1.1,60.116819,2025-10-04 01h09.01.191448 +0530
-150,z,51,3,12,x,0,0.7459041,None,,,,,12,3,51,3,822.1550488,,822.1416651,822.1550488,823.1550154,823.1550154,823.1550154,823.1550154,823.1550154,824.1544932,824.1544932,824.9085086,,,,,x,0,0.7459041,None,5,1,2025-10-04_01h08.51.528,Motor Sequence,,2025.1.1,60.116819,2025-10-04 01h09.01.191448 +0530
50,c,52,0,13,c,1,0.9070974,None,,,,,13,0,52,2,824.9219525,,824.9088882,824.9219525,825.9210223,825.9210223,825.9210223,825.9210223,825.9210223,826.9217038,826.9217038,827.8412824,,,,,c,1,0.9070974,None,5,1,2025-10-04_01h08.51.528,Motor Sequence,,2025.1.1,60.116819,2025-10-04 01h09.01.191448 +0530
150,v,53,1,13,z,0,0.9073043,None,,,,,13,1,53,1,827.8551574,,827.8416221,827.8551574,828.8547857,828.8547857,828.8547857,828.8547857,828.8547857,829.8553999,829.8553999,830.7772468,,,,,z,0,0.9073043,None,5,1,2025-10-04_01h08.51.528,Motor Sequence,,2025.1.1,60.116819,2025-10-04 01h09.01.191448 +0530
-50,x,54,2,13,v,0,2.3244599,None,,,,,13,2,54,0,830.7881976,,830.7776492,830.7881976,831.7878721,831.7878721,831.7878721,831.7878721,831.7878721,832.7879616,832.7879616,835.1249879,,,,,v,0,2.3244599,None,5,1,2025-10-04_01h08.51.528,Motor Sequence,,2025.1.1,60.116819,2025-10-04 01h09.01.191448 +0530
-150,z,55,3,13,x,0,4.805622,None,,,,,13,3,55,3,835.1381139,,835.1253453,835.1381139,836.1378681,836.1378681,836.1378681,836.1378681,836.1378681,837.1375695,837.1375695,841.9587121,,,,,x,0,4.805622,None,5,1,2025-10-04_01h08.51.528,Motor Sequence,,2025.1.1,60.116819,2025-10-04 01h09.01.191448 +0530
50,c,56,0,14,c,1,2.6950671,None,,,,,14,0,56,2,841.9712023,,841.9591901,841.9712023,842.9715542,842.9715542,842.9715542,842.9715542,842.9715542,843.9715084,843.9715084,846.6731068,,,,,c,1,2.6950671,None,5,1,2025-10-04_01h08.51.528,Motor Sequence,,2025.1.1,60.116819,2025-10-04 01h09.01.191448 +0530
150,v,57,1,14,z,0,1.3603813,None,,,,,14,1,57,1,846.6876109,,846.673587,846.6876109,847.6879238,847.6879238,847.6879238,847.6879238,847.6879238,848.6877534,848.6877534,850.0582365,,,,,z,0,1.3603813,None,5,1,2025-10-04_01h08.51.528,Motor Sequence,,2025.1.1,60.116819,2025-10-04 01h09.01.191448 +0530
-50,x,58,2,14,v,0,1.0374575,None,,,,,14,2,58,0,850.0714181,,850.0587155,850.0714181,851.0711074,851.0711074,851.0711074,851.0711074,851.0711074,852.070061,852.070061,853.1099272,,,,,v,0,1.0374575,None,5,1,2025-10-04_01h08.51.528,Motor Sequence,,2025.1.1,60.116819,2025-10-04 01h09.01.191448 +0530
-150,z,59,3,14,x,0,0.4937773,None,,,,,14,3,59,3,853.120737,,853.1103935,853.120737,854.1220974,854.1220974,854.1220974,854.1220974,854.1220974,855.1211778,855.1211778,855.6246204,,,,,x,0,0.4937773,None,5,1,2025-10-04_01h08.51.528,Motor Sequence,,2025.1.1,60.116819,2025-10-04 01h09.01.191448 +0530
-50,x,60,0,15,v,0,1.0550235,None,,,,,15,0,60,0,855.6378288,,855.624991,855.6378288,856.6375522,856.6375522,856.6375522,856.6375522,856.6375522,857.6374369,857.6374369,858.7077167,,,,,v,0,1.0550235,None,5,1,2025-10-04_01h08.51.528,Motor Sequence,,2025.1.1,60.116819,2025-10-04 01h09.01.191448 +0530
-150,z,61,1,15,x,0,0.850204,None,,,,,15,1,61,3,858.7215657,,858.7081123,858.7215657,859.7209826,859.7209826,859.7209826,859.7209826,859.7209826,860.7208331,860.7208331,861.5752538,,,,,x,0,0.850204,None,5,1,2025-10-04_01h08.51.528,Motor Sequence,,2025.1.1,60.116819,2025-10-04 01h09.01.191448 +0530
150,v,62,2,15,z,0,0.9832131,None,,,,,15,2,62,1,861.5875127,,861.5755776,861.5875127,862.5877226,862.5877226,862.5877226,862.5877226,862.5877226,863.5878409,863.5878409,864.5748812,,,,,z,0,0.9832131,None,5,1,2025-10-04_01h08.51.528,Motor Sequence,,2025.1.1,60.116819,2025-10-04 01h09.01.191448 +0530
50,c,63,3,15,c,1,1.0122857,None,,,,,15,3,63,2,864.5871229,,864.5752381,864.5871229,865.5873999,865.5873999,865.5873999,865.5873999,865.5873999,866.5875834,866.5875834,867.6072565,,,,,c,1,1.0122857,None,5,1,2025-10-04_01h08.51.528,Motor Sequence,,2025.1.1,60.116819,2025-10-04 01h09.01.191448 +0530
-150,z,64,0,16,x,0,0.7662326,None,,,,,16,0,64,3,867.6202336,,867.6076052,867.6202336,868.6205939,868.6205939,868.6205939,868.6205939,868.6205939,869.6207041,869.6207041,870.392602,,,,,x,0,0.7662326,None,5,1,2025-10-04_01h08.51.528,Motor Sequence,,2025.1.1,60.116819,2025-10-04 01h09.01.191448 +0530
-50,x,65,1,16,v,0,1.4554444,None,,,,,16,1,65,0,870.4039395,,870.3929728,870.4039395,871.4039649,871.4039649,871.4039649,871.4039649,871.4039649,872.4042166,872.4042166,873.8750673,,,,,v,0,1.4554444,None,5,1,2025-10-04_01h08.51.528,Motor Sequence,,2025.1.1,60.116819,2025-10-04 01h09.01.191448 +0530
150,v,66,2,16,z,0,1.2494937,None,,,,,16,2,66,1,873.8874674,,873.8754265,873.8874674,874.8868119,874.8868119,874.8868119,874.8868119,874.8868119,875.8870091,875.8870091,877.1407176,,,,,z,0,1.2494937,None,5,1,2025-10-04_01h08.51.528,Motor Sequence,,2025.1.1,60.116819,2025-10-04 01h09.01.191448 +0530
50,c,67,3,16,c,1,2.770598,None,,,,,16,3,67,2,877.154854,,877.1410872,877.154854,878.1536921,878.1536921,878.1536921,878.1536921,878.1536921,879.1541556,879.1541556,881.9266721,,,,,c,1,2.770598,None,5,1,2025-10-04_01h08.51.528,Motor Sequence,,2025.1.1,60.116819,2025-10-04 01h09.01.191448 +0530
50,c,68,0,17,c,1,2.494089,None,,,,,17,0,68,2,881.93733,,881.927032,881.93733,882.9376407,882.9376407,882.9376407,882.9376407,882.9376407,883.9371147,883.9371147,886.4421344,,,,,c,1,2.494089,None,5,1,2025-10-04_01h08.51.528,Motor Sequence,,2025.1.1,60.116819,2025-10-04 01h09.01.191448 +0530
-50,x,69,1,17,v,0,1.2543172,None,,,,,17,1,69,0,886.4551336,,886.4426245,886.4551336,887.4530087,887.4530087,887.4530087,887.4530087,887.4530087,888.4543811,888.4543811,889.7110587,,,,,v,0,1.2543172,None,5,1,2025-10-04_01h08.51.528,Motor Sequence,,2025.1.1,60.116819,2025-10-04 01h09.01.191448 +0530
-150,z,70,2,17,x,0,0.754675,None,,,,,17,2,70,3,889.7201819,,889.7114432,889.7201819,890.7200947,890.7200947,890.7200947,890.7200947,890.7200947,891.720192,891.720192,892.4887134,,,,,x,0,0.754675,None,5,1,2025-10-04_01h08.51.528,Motor Sequence,,2025.1.1,60.116819,2025-10-04 01h09.01.191448 +0530
150,v,71,3,17,z,0,0.9180466,None,,,,,17,3,71,1,892.5038866,,892.4889325,892.5038866,893.5032832,893.5032832,893.5032832,893.5032832,893.5032832,894.5030196,894.5030196,895.4249286,,,,,z,0,0.9180466,None,5,1,2025-10-04_01h08.51.528,Motor Sequence,,2025.1.1,60.116819,2025-10-04 01h09.01.191448 +0530
-150,z,72,0,18,x,0,0.8550688,None,,,,,18,0,72,3,895.4370942,,895.4252454,895.4370942,896.4371864,896.4371864,896.4371864,896.4371864,896.4371864,897.4377868,897.4377868,898.307289,,,,,x,0,0.8550688,None,5,1,2025-10-04_01h08.51.528,Motor Sequence,,2025.1.1,60.116819,2025-10-04 01h09.01.191448 +0530
-50,x,73,1,18,v,0,1.0172245,None,,,,,18,1,73,0,898.3209072,,898.307659,898.3209072,899.3210705,899.3210705,899.3210705,899.3210705,899.3210705,900.3199312,900.3199312,901.343029,,,,,v,0,1.0172245,None,5,1,2025-10-04_01h08.51.528,Motor Sequence,,2025.1.1,60.116819,2025-10-04 01h09.01.191448 +0530
50,c,74,2,18,c,1,1.9134891,None,,,,,18,2,74,2,901.3535666,,901.3433919,901.3535666,902.3535136,902.3535136,902.3535136,902.3535136,902.3535136,903.3535115,903.3535115,905.2744743,,,,,c,1,1.9134891,None,5,1,2025-10-04_01h08.51.528,Motor Sequence,,2025.1.1,60.116819,2025-10-04 01h09.01.191448 +0530
150,v,75,3,18,z,0,2.9264882,None,,,,,18,3,75,1,905.2868604,,905.2748184,905.2868604,906.2868698,906.2868698,906.2868698,906.2868698,906.2868698,907.2872787,907.2872787,910.2241071,,,,,z,0,2.9264882,None,5,1,2025-10-04_01h08.51.528,Motor Sequence,,2025.1.1,60.116819,2025-10-04 01h09.01.191448 +0530
-150,z,76,0,19,x,0,1.6010796,None,,,,,19,0,76,3,910.2371685,,910.2244895,910.2371685,911.2379172,911.2379172,911.2379172,911.2379172,911.2379172,912.2373199,912.2373199,913.853717,,,,,x,0,1.6010796,None,5,1,2025-10-04_01h08.51.528,Motor Sequence,,2025.1.1,60.116819,2025-10-04 01h09.01.191448 +0530
150,v,77,1,19,z,0,0.8222038,None,,,,,19,1,77,1,913.8691473,,913.8539192,913.8691473,914.8684123,914.8684123,914.8684123,914.8684123,914.8684123,915.8538248,915.8538248,916.6908479,,,,,z,0,0.8222038,None,5,1,2025-10-04_01h08.51.528,Motor Sequence,,2025.1.1,60.116819,2025-10-04 01h09.01.191448 +0530
50,c,78,2,19,c,1,5.0184592,None,,,,,19,2,78,2,916.7037108,,916.6911724,916.7037108,917.7022855,917.7022855,917.7022855,917.7022855,917.7185737,918.704268,918.704268,923.7243424,,,,,c,1,5.0184592,None,5,1,2025-10-04_01h08.51.528,Motor Sequence,,2025.1.1,60.116819,2025-10-04 01h09.01.191448 +0530
-50,x,79,3,19,v,0,1.1027748,None,,,,,19,3,79,0,923.7373704,,923.7246476,923.7373704,924.7371121,924.7371121,924.7371121,924.7371121,924.7371121,925.7368413,925.7368413,926.8428397,,,,,v,0,1.1027748,None,5,1,2025-10-04_01h08.51.528,Motor Sequence,,2025.1.1,60.116819,2025-10-04 01h09.01.191448 +0530
-50,x,80,0,20,v,0,3.5415291,None,,,,,20,0,80,0,926.8531765,,926.8432737,926.8531765,927.8531868,927.8531868,927.8531868,927.8531868,927.8531868,928.8534485,928.8534485,932.4070235,,,,,v,0,3.5415291,None,5,1,2025-10-04_01h08.51.528,Motor Sequence,,2025.1.1,60.116819,2025-10-04 01h09.01.191448 +0530
50,c,81,1,20,c,1,1.7101689,None,,,,,20,1,81,2,932.420802,,932.4073841,932.420802,933.4207128,933.4207128,933.4207128,933.4207128,933.4207128,934.4199701,934.4199701,936.1411674,,,,,c,1,1.7101689,None,5,1,2025-10-04_01h08.51.528,Motor Sequence,,2025.1.1,60.116819,2025-10-04 01h09.01.191448 +0530
-150,z,82,2,20,x,0,1.084701,None,,,,,20,2,82,3,936.1537162,,936.1416345,936.1537162,937.1521565,937.1521565,937.1521565,937.1521565,937.1684758,938.1537496,938.1537496,939.2422284,,,,,x,0,1.084701,None,5,1,2025-10-04_01h08.51.528,Motor Sequence,,2025.1.1,60.116819,2025-10-04 01h09.01.191448 +0530
150,v,83,3,20,z,0,2.3550047,None,,,,,20,3,83,1,939.2558181,,939.2425921,939.2558181,940.2538918,940.2538918,940.2538918,940.2538918,940.2689016,941.2533723,941.2533723,943.6263017,,,,,z,0,2.3550047,None,5,1,2025-10-04_01h08.51.528,Motor Sequence,,2025.1.1,60.116819,2025-10-04 01h09.01.191448 +0530
-150,z,84,0,21,x,0,0.6948343,None,,,,,21,0,84,3,943.6371308,,943.6267933,943.6371308,944.637145,944.637145,944.637145,944.637145,944.637145,945.6366826,945.6366826,946.3399498,,,,,x,0,0.6948343,None,5,1,2025-10-04_01h08.51.528,Motor Sequence,,2025.1.1,60.116819,2025-10-04 01h09.01.191448 +0530
150,v,85,1,21,z,0,1.9615336,None,,,,,21,1,85,1,946.3541946,,946.3403255,946.3541946,947.3538955,947.3538955,947.3538955,947.3538955,947.3538955,948.3523573,948.3523573,950.323267,,,,,z,0,1.9615336,None,5,1,2025-10-04_01h08.51.528,Motor Sequence,,2025.1.1,60.116819,2025-10-04 01h09.01.191448 +0530
-50,x,86,2,21,v,0,0.7383611,None,,,,,21,2,86,0,950.3366403,,950.3236533,950.3366403,951.3370273,951.3370273,951.3370273,951.3370273,951.3370273,952.3367714,952.3367714,953.0909599,,,,,v,0,0.7383611,None,5,1,2025-10-04_01h08.51.528,Motor Sequence,,2025.1.1,60.116819,2025-10-04 01h09.01.191448 +0530
50,c,87,3,21,c,1,2.0752165,None,,,,,21,3,87,2,953.1036225,,953.0913386,953.1036225,954.1028672,954.1028672,954.1028672,954.1028672,954.1028672,955.1029904,955.1029904,957.1892519,,,,,c,1,2.0752165,None,5,1,2025-10-04_01h08.51.528,Motor Sequence,,2025.1.1,60.116819,2025-10-04 01h09.01.191448 +0530
150,v,88,0,22,z,0,0.7290247,None,,,,,22,0,88,1,957.2023526,,957.1896061,957.2023526,958.2032674,958.2032674,958.2032674,958.2032674,958.2032674,959.202072,959.202072,959.9399457,,,,,z,0,0.7290247,None,5,1,2025-10-04_01h08.51.528,Motor Sequence,,2025.1.1,60.116819,2025-10-04 01h09.01.191448 +0530
-150,z,89,1,22,x,0,0.6358319,None,,,,,22,1,89,3,959.9539834,,959.9403183,959.9539834,960.9531365,960.9531365,960.9531365,960.9531365,960.9531365,961.9533116,961.9533116,962.5916227,,,,,x,0,0.6358319,None,5,1,2025-10-04_01h08.51.528,Motor Sequence,,2025.1.1,60.116819,2025-10-04 01h09.01.191448 +0530
-50,x,90,2,22,v,0,0.5146749,None,,,,,22,2,90,0,962.6029243,,962.5920254,962.6029243,963.6024969,963.6024969,963.6024969,963.6024969,963.6024969,964.6037924,964.6037924,965.1271343,,,,,v,0,0.5146749,None,5,1,2025-10-04_01h08.51.528,Motor Sequence,,2025.1.1,60.116819,2025-10-04 01h09.01.191448 +0530
50,c,91,3,22,c,1,1.4817522,None,,,,,22,3,91,2,965.1367076,,965.1275701,965.1367076,966.1364984,966.1364984,966.1364984,966.1364984,966.1364984,967.136495,967.136495,968.6237511,,,,,c,1,1.4817522,None,5,1,2025-10-04_01h08.51.528,Motor Sequence,,2025.1.1,60.116819,2025-10-04 01h09.01.191448 +0530
50,c,92,0,23,c,1,4.7691424,None,,,,,23,0,92,2,968.6363271,,968.6241333,968.6363271,969.6364682,969.6364682,969.6364682,969.6364682,969.6364682,970.6366962,970.6366962,975.4080223,,,,,c,1,4.7691424,None,5,1,2025-10-04_01h08.51.528,Motor Sequence,,2025.1.1,60.116819,2025-10-04 01h09.01.191448 +0530
-50,x,93,1,23,v,0,0.839463,None,,,,,23,1,93,0,975.4195863,,975.4083948,975.4195863,976.4201586,976.4201586,976.4201586,976.4201586,976.4201586,977.4192585,977.4192585,978.2751666,,,,,v,0,0.839463,None,5,1,2025-10-04_01h08.51.528,Motor Sequence,,2025.1.1,60.116819,2025-10-04 01h09.01.191448 +0530
-150,z,94,2,23,x,0,2.189114,None,,,,,23,2,94,3,978.2866971,,978.2755539,978.2866971,979.2863103,979.2863103,979.2863103,979.2863103,979.2863103,980.2855626,980.2855626,982.4898903,,,,,x,0,2.189114,None,5,1,2025-10-04_01h08.51.528,Motor Sequence,,2025.1.1,60.116819,2025-10-04 01h09.01.191448 +0530
150,v,95,3,23,z,0,6.5561266,None,,,,,23,3,95,1,982.5036943,,982.4902341,982.5036943,983.5031286,983.5031286,983.5031286,983.5031286,983.5031286,984.5016285,984.5016285,991.0746832,,,,,z,0,6.5561266,None,5,1,2025-10-04_01h08.51.528,Motor Sequence,,2025.1.1,60.116819,2025-10-04 01h09.01.191448 +0530
50,c,96,0,24,c,1,1.6627754,None,,,,,24,0,96,2,991.0865888,,991.0751018,991.0865888,992.0862658,992.0862658,992.0862658,992.0862658,992.0862658,993.0861625,993.0861625,994.7563413,,,,,c,1,1.6627754,None,5,1,2025-10-04_01h08.51.528,Motor Sequence,,2025.1.1,60.116819,2025-10-04 01h09.01.191448 +0530
150,v,97,1,24,z,0,1.5808869,None,,,,,24,1,97,1,994.7696515,,994.75671,994.7696515,995.7699737,995.7699737,995.7699737,995.7699737,995.7699737,996.7698349,996.7698349,998.3579507,,,,,z,0,1.5808869,None,5,1,2025-10-04_01h08.51.528,Motor Sequence,,2025.1.1,60.116819,2025-10-04 01h09.01.191448 +0530
-150,z,98,2,24,x,0,4.2238728,None,,,,,24,2,98,3,998.3692736,,998.3583446,998.3692736,999.3691515,999.3691515,999.3691515,999.3691515,999.3691515,1000.369319,1000.369319,1004.606629,,,,,x,0,4.2238728,None,5,1,2025-10-04_01h08.51.528,Motor Sequence,,2025.1.1,60.116819,2025-10-04 01h09.01.191448 +0530
-50,x,99,3,24,v,0,1.0647674,None,,,,,24,3,99,0,1004.619568,,1004.60705,1004.619568,1005.61904,1005.61904,1005.61904,1005.61904,1005.61904,1006.618128,1006.618128,1007.690466,,,,,v,0,1.0647674,None,5,1,2025-10-04_01h08.51.528,Motor Sequence,,2025.1.1,60.116819,2025-10-04 01h09.01.191448 +0530
-50,x,100,0,25,v,0,1.2796171,None,,,,,25,0,100,0,1007.702397,,1007.690837,1007.702397,1008.702812,1008.702812,1008.702812,1008.702812,1008.702812,1009.70309,1009.70309,1010.990672,,,,,v,0,1.2796171,None,5,1,2025-10-04_01h08.51.528,Motor Sequence,,2025.1.1,60.116819,2025-10-04 01h09.01.191448 +0530
-150,z,101,1,25,x,0,0.727604,None,,,,,25,1,101,3,1011.002475,,1010.99114,1011.002475,1012.002675,1012.002675,1012.002675,1012.002675,1012.002675,1013.003051,1013.003051,1013.739269,,,,,x,0,0.727604,None,5,1,2025-10-04_01h08.51.528,Motor Sequence,,2025.1.1,60.116819,2025-10-04 01h09.01.191448 +0530
150,v,102,2,25,z,0,1.8025166,None,,,,,25,2,102,1,1013.753162,,1013.739631,1013.753162,1014.752377,1014.752377,1014.752377,1014.752377,1014.752377,1015.752671,1015.752671,1017.557735,,,,,z,0,1.8025166,None,5,1,2025-10-04_01h08.51.528,Motor Sequence,,2025.1.1,60.116819,2025-10-04 01h09.01.191448 +0530
50,c,103,3,25,c,1,2.3615838,None,,,,,25,3,103,2,1017.569228,,1017.558099,1017.569228,1018.569695,1018.569695,1018.569695,1018.569695,1018.569695,1019.569362,1019.569362,1021.939194,,,,,c,1,2.3615838,None,5,1,2025-10-04_01h08.51.528,Motor Sequence,,2025.1.1,60.116819,2025-10-04 01h09.01.191448 +0530
-150,z,104,0,26,x,0,0.8325032,None,,,,,26,0,104,3,1021.952685,,1021.939588,1021.952685,1022.952388,1022.952388,1022.952388,1022.952388,1022.952388,1023.952889,1023.952889,1024.789765,,,,,x,0,0.8325032,None,5,1,2025-10-04_01h08.51.528,Motor Sequence,,2025.1.1,60.116819,2025-10-04 01h09.01.191448 +0530
150,v,105,1,26,z,0,1.5096901,None,,,,,26,1,105,1,1024.802563,,1024.790112,1024.802563,1025.802046,1025.802046,1025.802046,1025.802046,1025.802046,1026.802641,1026.802641,1028.322649,,,,,z,0,1.5096901,None,5,1,2025-10-04_01h08.51.528,Motor Sequence,,2025.1.1,60.116819,2025-10-04 01h09.01.191448 +0530
-50,x,106,2,26,v,0,0.6179066,None,,,,,26,2,106,0,1028.336089,,1028.323008,1028.336089,1029.336345,1029.336345,1029.336345,1029.336345,1029.336345,1030.335411,1030.335411,1030.958972,,,,,v,0,0.6179066,None,5,1,2025-10-04_01h08.51.528,Motor Sequence,,2025.1.1,60.116819,2025-10-04 01h09.01.191448 +0530
50,c,107,3,26,c,1,2.2417578,None,,,,,26,3,107,2,1030.968747,,1030.959361,1030.968747,1031.968866,1031.968866,1031.968866,1031.968866,1031.968866,1032.967249,1032.967249,1035.22344,,,,,c,1,2.2417578,None,5,1,2025-10-04_01h08.51.528,Motor Sequence,,2025.1.1,60.116819,2025-10-04 01h09.01.191448 +0530
50,c,108,0,27,c,1,1.4371376,None,,,,,27,0,108,2,1035.23565,,1035.223821,1035.23565,1036.235345,1036.235345,1036.235345,1036.235345,1036.235345,1037.235117,1037.235117,1038.67357,,,,,c,1,1.4371376,None,5,1,2025-10-04_01h08.51.528,Motor Sequence,,2025.1.1,60.116819,2025-10-04 01h09.01.191448 +0530
-150,z,109,1,27,x,0,1.1206896,None,,,,,27,1,109,3,1038.685872,,1038.673937,1038.685872,1039.685187,1039.685187,1039.685187,1039.685187,1039.685187,1040.684994,1040.684994,1041.823242,,,,,x,0,1.1206896,None,5,1,2025-10-04_01h08.51.528,Motor Sequence,,2025.1.1,60.116819,2025-10-04 01h09.01.191448 +0530
-50,x,110,2,27,v,0,3.2138826,None,,,,,27,2,110,0,1041.836163,,1041.823605,1041.836163,1042.834544,1042.834544,1042.834544,1042.834544,1042.850493,1043.835271,1043.835271,1047.058912,,,,,v,0,3.2138826,None,5,1,2025-10-04_01h08.51.528,Motor Sequence,,2025.1.1,60.116819,2025-10-04 01h09.01.191448 +0530
150,v,111,3,27,c,0,6.6835186,None,,,,,27,3,111,1,1047.069431,,1047.059328,1047.069431,1048.069781,1048.069781,1048.069781,1048.069781,1048.069781,1049.069336,1049.069336,1055.756383,,,,,c,0,6.6835186,None,5,1,2025-10-04_01h08.51.528,Motor Sequence,,2025.1.1,60.116819,2025-10-04 01h09.01.191448 +0530
-150,z,112,0,28,z,1,0.6248682,None,,,,,28,0,112,3,1055.768795,,1055.756922,1055.768795,1056.76931,1056.76931,1056.76931,1056.76931,1056.76931,1057.769302,1057.769302,1058.405672,,,,,z,1,0.6248682,None,5,1,2025-10-04_01h08.51.528,Motor Sequence,,2025.1.1,60.116819,2025-10-04 01h09.01.191448 +0530
50,c,113,1,28,x,0,0.4100592,None,,,,,28,1,113,2,1058.418758,,1058.405997,1058.418758,1059.418972,1059.418972,1059.418972,1059.418972,1059.418972,1060.41889,1060.41889,1060.837934,,,,,x,0,0.4100592,None,5,1,2025-10-04_01h08.51.528,Motor Sequence,,2025.1.1,60.116819,2025-10-04 01h09.01.191448 +0530
-50,x,114,2,28,v,0,1.0665244,None,,,,,28,2,114,0,1060.852806,,1060.83832,1060.852806,1061.852361,1061.852361,1061.852361,1061.852361,1061.868382,1062.852294,1062.852294,1063.922459,,,,,v,0,1.0665244,None,5,1,2025-10-04_01h08.51.528,Motor Sequence,,2025.1.1,60.116819,2025-10-04 01h09.01.191448 +0530
150,v,115,3,28,z,0,2.7013993,None,,,,,28,3,115,1,1063.935674,,1063.922797,1063.935674,1064.93547,1064.93547,1064.93547,1064.93547,1064.93547,1065.93531,1065.93531,1068.640961,,,,,z,0,2.7013993,None,5,1,2025-10-04_01h08.51.528,Motor Sequence,,2025.1.1,60.116819,2025-10-04 01h09.01.191448 +0530
-150,z,116,0,29,x,0,3.0553683,None,,,,,29,0,116,3,1068.652449,,1068.641365,1068.652449,1069.651993,1069.651993,1069.651993,1069.651993,1069.651993,1070.652339,1070.652339,1073.708875,,,,,x,0,3.0553683,None,5,1,2025-10-04_01h08.51.528,Motor Sequence,,2025.1.1,60.116819,2025-10-04 01h09.01.191448 +0530
150,v,117,1,29,z,0,1.4236096,None,,,,,29,1,117,1,1073.718615,,1073.709322,1073.718615,1074.718398,1074.718398,1074.718398,1074.718398,1074.718398,1075.718832,1075.718832,1077.1545,,,,,z,0,1.4236096,None,5,1,2025-10-04_01h08.51.528,Motor Sequence,,2025.1.1,60.116819,2025-10-04 01h09.01.191448 +0530
50,c,118,2,29,c,1,8.5845924,None,,,,,29,2,118,2,1077.169076,,1077.154847,1077.169076,1078.168361,1078.168361,1078.168361,1078.168361,1078.168361,1079.168129,1079.168129,1087.7694,,,,,c,1,8.5845924,None,5,1,2025-10-04_01h08.51.528,Motor Sequence,,2025.1.1,60.116819,2025-10-04 01h09.01.191448 +0530
-50,x,119,3,29,v,0,2.7314701,None,,,,,29,3,119,0,1087.784587,,1087.769642,1087.784587,1088.769004,1088.769004,1088.769004,1088.769004,1088.784861,1089.785774,1089.785774,1092.523278,,,,,v,0,2.7314701,None,5,1,2025-10-04_01h08.51.528,Motor Sequence,,2025.1.1,60.116819,2025-10-04 01h09.01.191448 +0530
-150,z,120,0,30,x,0,0.8069834,None,,,,,30,0,120,3,1092.53502,,1092.523607,1092.53502,1093.534443,1093.534443,1093.534443,1093.534443,1093.534443,1094.534917,1094.534917,1095.354668,,,,,x,0,0.8069834,None,5,1,2025-10-04_01h08.51.528,Motor Sequence,,2025.1.1,60.116819,2025-10-04 01h09.01.191448 +0530
50,c,121,1,30,c,1,3.7717311,None,,,,,30,1,121,2,1095.367232,,1095.354944,1095.367232,1096.367971,1096.367971,1096.367971,1096.367971,1096.367971,1097.36821,1097.36821,1101.154826,,,,,c,1,3.7717311,None,5,1,2025-10-04_01h08.51.528,Motor Sequence,,2025.1.1,60.116819,2025-10-04 01h09.01.191448 +0530
-50,x,122,2,30,v,0,1.4536949,None,,,,,30,2,122,0,1101.168867,,1101.155107,1101.168867,1102.167922,1102.167922,1102.167922,1102.167922,1102.167922,1103.168022,1103.168022,1104.63878,,,,,v,0,1.4536949,None,5,1,2025-10-04_01h08.51.528,Motor Sequence,,2025.1.1,60.116819,2025-10-04 01h09.01.191448 +0530
150,v,123,3,30,z,0,2.4229158,None,,,,,30,3,123,1,1104.651674,,1104.639093,1104.651674,1105.65154,1105.65154,1105.65154,1105.65154,1105.65154,1106.651963,1106.651963,1109.088199,,,,,z,0,2.4229158,None,5,1,2025-10-04_01h08.51.528,Motor Sequence,,2025.1.1,60.116819,2025-10-04 01h09.01.191448 +0530
150,v,124,0,31,z,0,2.4440527,None,,,,,31,0,124,1,1109.101621,,1109.088525,1109.101621,1110.101959,1110.101959,1110.101959,1110.101959,1110.101959,1111.101999,1111.101999,1113.5538,,,,,z,0,2.4440527,None,5,1,2025-10-04_01h08.51.528,Motor Sequence,,2025.1.1,60.116819,2025-10-04 01h09.01.191448 +0530
-150,z,125,1,31,x,0,1.2431509,None,,,,,31,1,125,3,1113.568336,,1113.554051,1113.568336,1114.567588,1114.567588,1114.567588,1114.567588,1114.567588,1115.567284,1115.567284,1116.821987,,,,,x,0,1.2431509,None,5,1,2025-10-04_01h08.51.528,Motor Sequence,,2025.1.1,60.116819,2025-10-04 01h09.01.191448 +0530
-50,x,126,2,31,v,0,0.5415412,None,,,,,31,2,126,0,1116.834874,,1116.82242,1116.834874,1117.834645,1117.834645,1117.834645,1117.834645,1117.834645,1118.834712,1118.834712,1119.388273,,,,,v,0,0.5415412,None,5,1,2025-10-04_01h08.51.528,Motor Sequence,,2025.1.1,60.116819,2025-10-04 01h09.01.191448 +0530
50,c,127,3,31,c,1,6.2114548,None,,,,,31,3,127,2,1119.401977,,1119.388689,1119.401977,1120.401123,1120.401123,1120.401123,1120.401123,1120.401123,1121.402396,1121.402396,1127.622819,,,,,c,1,6.2114548,None,5,1,2025-10-04_01h08.51.528,Motor Sequence,,2025.1.1,60.116819,2025-10-04 01h09.01.191448 +0530
-50,x,128,0,32,v,0,1.209661,None,,,,,32,0,128,0,1127.634628,,1127.623186,1127.634628,1128.634791,1128.634791,1128.634791,1128.634791,1128.634791,1129.633918,1129.633918,1130.85455,,,,,v,0,1.209661,None,5,1,2025-10-04_01h08.51.528,Motor Sequence,,2025.1.1,60.116819,2025-10-04 01h09.01.191448 +0530
50,c,129,1,32,c,1,1.3220141,None,,,,,32,1,129,2,1130.868305,,1130.854924,1130.868305,1131.870328,1131.870328,1131.870328,1131.870328,1131.870328,1132.868818,1132.868818,1134.20495,,,,,c,1,1.3220141,None,5,1,2025-10-04_01h08.51.528,Motor Sequence,,2025.1.1,60.116819,2025-10-04 01h09.01.191448 +0530
-150,z,130,2,32,x,0,0.7109239,None,,,,,32,2,130,3,1134.218058,,1134.205296,1134.218058,1135.217148,1135.217148,1135.217148,1135.217148,1135.217148,1136.217222,1136.217222,1136.937733,,,,,x,0,0.7109239,None,5,1,2025-10-04_01h08.51.528,Motor Sequence,,2025.1.1,60.116819,2025-10-04 01h09.01.191448 +0530
150,v,131,3,32,z,0,5.2154588,None,,,,,32,3,131,1,1136.951454,,1136.938101,1136.951454,1137.950883,1137.950883,1137.950883,1137.950883,1137.950883,1138.950909,1138.950909,1144.172042,,,,,z,0,5.2154588,None,5,1,2025-10-04_01h08.51.528,Motor Sequence,,2025.1.1,60.116819,2025-10-04 01h09.01.191448 +0530
150,v,132,0,33,z,0,0.7400915,None,,,,,33,0,132,1,1144.184732,,1144.17237,1144.184732,1145.183726,1145.183726,1145.183726,1145.183726,1145.183726,1146.184093,1146.184093,1146.939782,,,,,z,0,0.7400915,None,5,1,2025-10-04_01h08.51.528,Motor Sequence,,2025.1.1,60.116819,2025-10-04 01h09.01.191448 +0530
