thisN,thisTrialN,thisRepN,mouse.x,mouse.y,mouse.leftButton,mouse.midButton,mouse.rightButton,mouse.time,mouse.clicked_name,trials.thisRepN,trials.thisTrialN,trials.thisN,trials.thisIndex,thisRow.t,notes,num_distr,trial.started,fixation.started,target.started,mouse.started,trial.stopped,trials.mouse.x,trials.mouse.y,trials.mouse.leftButton,trials.mouse.midButton,trials.mouse.rightButton,trials.mouse.time,trials.mouse.clicked_name,participant,session,date,expName,expVersion,psychopyVersion,frameRate,expStart,
0,0,0,[np.float64(-0.4444444444444444)],[np.float64(-0.04814814814814815)],[1],[0],[0],[21.74401229992509],['target'],0,0,0,0,0.02561369980685413,,10,0.018760799895972013,0.02561369980685413,0.02561369980685413,0.01877920003607869,21.762859199894592,[np.float64(-0.4444444444444444)],[np.float64(-0.04814814814814815)],[1],[0],[0],[21.74401229992509],['target'],5,001,2025-09-30_15h59.34.260,Visual Search,,2025.1.1,60.09568430757593,2025-09-30 16h01.23.710853 +0530,
1,0,1,[np.float64(0.5092592592592593)],[np.float64(0.16666666666666666)],[1],[0],[0],[1.1232068999670446],['target'],1,0,1,0,21.775570399826393,,5,21.771446499973536,21.775570399826393,21.775570399826393,0.008384099928662181,22.894744699820876,[np.float64(0.5092592592592593)],[np.float64(0.16666666666666666)],[1],[0],[0],[1.1232068999670446],['target'],5,001,2025-09-30_15h59.34.260,Visual Search,,2025.1.1,60.09568430757593,2025-09-30 16h01.23.710853 +0530,
2,0,2,[np.float64(-0.03333333333333333)],[np.float64(-0.15648148148148147)],[1],[0],[0],[1.0236934998538345],['target'],2,0,2,0,22.910973699996248,,5,22.906705499859527,22.910973699996248,22.910973699996248,0.011801499873399734,23.930498499888927,[np.float64(-0.03333333333333333)],[np.float64(-0.15648148148148147)],[1],[0],[0],[1.0236934998538345],['target'],5,001,2025-09-30_15h59.34.260,Visual Search,,2025.1.1,60.09568430757593,2025-09-30 16h01.23.710853 +0530,
3,0,3,[np.float64(0.4638888888888889)],[np.float64(-0.10833333333333334)],[1],[0],[0],[1.1783326000440866],[None],3,0,3,0,23.95209449995309,,10,23.946344799827784,23.95209449995309,23.95209449995309,0.01566929998807609,25.124779399950057,[np.float64(0.4638888888888889)],[np.float64(-0.10833333333333334)],[1],[0],[0],[1.1783326000440866],[None],5,001,2025-09-30_15h59.34.260,Visual Search,,2025.1.1,60.09568430757593,2025-09-30 16h01.23.710853 +0530,
4,0,4,[np.float64(-0.3527777777777778)],[np.float64(-0.07314814814814814)],[1],[0],[0],[1.1147767000366002],[None],4,0,4,0,25.150953899836168,,10,25.14454759983346,25.150953899836168,25.150953899836168,0.019553400110453367,26.259391899919137,[np.float64(-0.3527777777777778)],[np.float64(-0.07314814814814814)],[1],[0],[0],[1.1147767000366002],[None],5,001,2025-09-30_15h59.34.260,Visual Search,,2025.1.1,60.09568430757593,2025-09-30 16h01.23.710853 +0530,
5,0,5,[np.float64(-0.20833333333333334)],[np.float64(-0.2916666666666667)],[1],[0],[0],[1.098598700016737],['target'],5,0,5,0,26.284256199840456,,10,26.277588199824095,26.284256199840456,26.284256199840456,0.0180500999558717,27.37627199990675,[np.float64(-0.20833333333333334)],[np.float64(-0.2916666666666667)],[1],[0],[0],[1.098598700016737],['target'],5,001,2025-09-30_15h59.34.260,Visual Search,,2025.1.1,60.09568430757593,2025-09-30 16h01.23.710853 +0530,
6,0,6,[np.float64(-0.15462962962962962)],[np.float64(0.48703703703703705)],[1],[0],[0],[1.5024087999481708],[None],6,0,6,0,27.392677899915725,,5,27.388439799891785,27.392677899915725,27.392677899915725,0.011994299944490194,28.89093520003371,[np.float64(-0.15462962962962962)],[np.float64(0.48703703703703705)],[1],[0],[0],[1.5024087999481708],[None],5,001,2025-09-30_15h59.34.260,Visual Search,,2025.1.1,60.09568430757593,2025-09-30 16h01.23.710853 +0530,
7,0,7,[np.float64(-0.09166666666666666)],[np.float64(0.3435185185185185)],[1],[0],[0],[0.9913478000089526],[None],7,0,7,0,28.906239799922332,,5,28.901445699855685,28.906239799922332,28.906239799922332,0.010347000090405345,29.892879199935123,[np.float64(-0.09166666666666666)],[np.float64(0.3435185185185185)],[1],[0],[0],[0.9913478000089526],[None],5,001,2025-09-30_15h59.34.260,Visual Search,,2025.1.1,60.09568430757593,2025-09-30 16h01.23.710853 +0530,
8,0,8,[np.float64(0.09074074074074075)],[np.float64(0.11944444444444445)],[1],[0],[0],[1.1260679000988603],['target'],8,0,8,0,29.90631389990449,,5,29.90175740001723,29.90631389990449,29.90631389990449,0.00873280013911426,31.02792299981229,[np.float64(0.09074074074074075)],[np.float64(0.11944444444444445)],[1],[0],[0],[1.1260679000988603],['target'],5,001,2025-09-30_15h59.34.260,Visual Search,,2025.1.1,60.09568430757593,2025-09-30 16h01.23.710853 +0530,
9,0,9,[np.float64(-0.18703703703703703)],[np.float64(-0.3351851851851852)],[1],[0],[0],[1.216188200050965],['target'],9,0,9,0,31.051134299952537,,10,31.04508650000207,31.051134299952537,31.051134299952537,0.0169684998691082,32.2613735999912,[np.float64(-0.18703703703703703)],[np.float64(-0.3351851851851852)],[1],[0],[0],[1.216188200050965],['target'],5,001,2025-09-30_15h59.34.260,Visual Search,,2025.1.1,60.09568430757593,2025-09-30 16h01.23.710853 +0530,
10,0,10,[np.float64(0.05092592592592592)],[np.float64(0.2953703703703704)],[1],[0],[0],[1.1912581999786198],['target'],10,0,10,0,32.275432099821046,,5,32.271007699891925,32.275432099821046,32.275432099821046,0.009414199972525239,33.462363299913704,[np.float64(0.05092592592592592)],[np.float64(0.2953703703703704)],[1],[0],[0],[1.1912581999786198],['target'],5,001,2025-09-30_15h59.34.260,Visual Search,,2025.1.1,60.09568430757593,2025-09-30 16h01.23.710853 +0530,
11,0,11,[np.float64(0.013888888888888888)],[np.float64(-0.41388888888888886)],[1],[0],[0],[1.1522351000458002],['target'],11,0,11,0,33.47959619993344,,5,33.47525299992412,33.47959619993344,33.47959619993344,0.012722099898383021,34.62762179994024,[np.float64(0.013888888888888888)],[np.float64(-0.41388888888888886)],[1],[0],[0],[1.1522351000458002],['target'],5,001,2025-09-30_15h59.34.260,Visual Search,,2025.1.1,60.09568430757593,2025-09-30 16h01.23.710853 +0530,
12,0,12,[np.float64(-0.1712962962962963)],[np.float64(-0.4981481481481482)],[1],[0],[0],[1.158482100116089],[None],12,0,12,0,34.641060299938545,,5,34.63616049988195,34.641060299938545,34.641060299938545,0.008395400131121278,35.79473889991641,[np.float64(-0.1712962962962963)],[np.float64(-0.4981481481481482)],[1],[0],[0],[1.158482100116089],[None],5,001,2025-09-30_15h59.34.260,Visual Search,,2025.1.1,60.09568430757593,2025-09-30 16h01.23.710853 +0530,
13,0,13,[np.float64(-0.48148148148148145)],[np.float64(0.42685185185185187)],[1],[0],[0],[1.53726839995943],['target'],13,0,13,0,35.809698099968955,,5,35.80477109993808,35.809698099968955,35.809698099968955,0.009862700011581182,37.342083799885586,[np.float64(-0.48148148148148145)],[np.float64(0.42685185185185187)],[1],[0],[0],[1.53726839995943],['target'],5,001,2025-09-30_15h59.34.260,Visual Search,,2025.1.1,60.09568430757593,2025-09-30 16h01.23.710853 +0530,
14,0,14,[np.float64(0.032407407407407406)],[np.float64(-0.262037037037037)],[1],[0],[0],[1.2778772998135537],[None],14,0,14,0,37.355998300015926,,5,37.34984809998423,37.355998300015926,37.355998300015926,0.007697000168263912,38.62780969985761,[np.float64(0.032407407407407406)],[np.float64(-0.262037037037037)],[1],[0],[0],[1.2778772998135537],[None],5,001,2025-09-30_15h59.34.260,Visual Search,,2025.1.1,60.09568430757593,2025-09-30 16h01.23.710853 +0530,
15,0,15,[np.float64(0.020370370370370372)],[np.float64(-0.22314814814814815)],[1],[0],[0],[2.533940900117159],['target'],15,0,15,0,38.647917499998584,,10,38.64201750000939,38.647917499998584,38.647917499998584,0.014062899863347411,41.17602729983628,[np.float64(0.020370370370370372)],[np.float64(-0.22314814814814815)],[1],[0],[0],[2.533940900117159],['target'],5,001,2025-09-30_15h59.34.260,Visual Search,,2025.1.1,60.09568430757593,2025-09-30 16h01.23.710853 +0530,
16,0,16,[np.float64(0.05)],[np.float64(-0.20185185185185187)],[1],[0],[0],[1.347534399945289],['target'],16,0,16,0,41.189539099810645,,5,41.18368879985064,41.189539099810645,41.189539099810645,0.007534899981692433,42.53135719988495,[np.float64(0.05)],[np.float64(-0.20185185185185187)],[1],[0],[0],[1.347534399945289],['target'],5,001,2025-09-30_15h59.34.260,Visual Search,,2025.1.1,60.09568430757593,2025-09-30 16h01.23.710853 +0530,
17,0,17,[np.float64(0.43425925925925923)],[np.float64(0.30833333333333335)],[1],[0],[0],[1.2330509000457823],[None],17,0,17,0,42.54542989982292,,5,42.54103700001724,42.54542989982292,42.54542989982292,0.009475900093093514,43.77417969983071,[np.float64(0.43425925925925923)],[np.float64(0.30833333333333335)],[1],[0],[0],[1.2330509000457823],[None],5,001,2025-09-30_15h59.34.260,Visual Search,,2025.1.1,60.09568430757593,2025-09-30 16h01.23.710853 +0530,
18,0,18,[np.float64(0.07037037037037037)],[np.float64(0.11666666666666667)],[1],[0],[0],[1.044204100035131],['target'],18,0,18,0,43.789341300027445,,5,43.78333569993265,43.789341300027445,43.789341300027445,0.009001499973237514,44.82763219997287,[np.float64(0.07037037037037037)],[np.float64(0.11666666666666667)],[1],[0],[0],[1.044204100035131],['target'],5,001,2025-09-30_15h59.34.260,Visual Search,,2025.1.1,60.09568430757593,2025-09-30 16h01.23.710853 +0530,
19,0,19,[np.float64(-0.2)],[np.float64(0.28425925925925927)],[1],[0],[0],[1.3800938001368195],['target'],19,0,19,0,44.85039579984732,,10,44.84368489985354,44.85039579984732,44.85039579984732,0.015856500016525388,46.22387099987827,[np.float64(-0.2)],[np.float64(0.28425925925925927)],[1],[0],[0],[1.3800938001368195],['target'],5,001,2025-09-30_15h59.34.260,Visual Search,,2025.1.1,60.09568430757593,2025-09-30 16h01.23.710853 +0530,
20,0,20,[np.float64(-0.45092592592592595)],[np.float64(-0.4388888888888889)],[1],[0],[0],[1.2081440999172628],['target'],20,0,20,0,46.24193479982205,,5,46.237669199937955,46.24193479982205,46.24193479982205,0.013595799915492535,47.44593219994567,[np.float64(-0.45092592592592595)],[np.float64(-0.4388888888888889)],[1],[0],[0],[1.2081440999172628],['target'],5,001,2025-09-30_15h59.34.260,Visual Search,,2025.1.1,60.09568430757593,2025-09-30 16h01.23.710853 +0530,
21,0,21,[np.float64(0.33055555555555555)],[np.float64(-0.2916666666666667)],[1],[0],[0],[1.2141784001141787],[None],21,0,21,0,47.467945699812844,,10,47.46199560002424,47.467945699812844,47.467945699812844,0.015885500004515052,48.67625040002167,[np.float64(0.33055555555555555)],[np.float64(-0.2916666666666667)],[1],[0],[0],[1.2141784001141787],[None],5,001,2025-09-30_15h59.34.260,Visual Search,,2025.1.1,60.09568430757593,2025-09-30 16h01.23.710853 +0530,
22,0,22,[np.float64(0.35648148148148145)],[np.float64(-0.17037037037037037)],[1],[0],[0],[0.8679635000880808],[None],22,0,22,0,48.699136700015515,,10,48.69316000002436,48.699136700015515,48.699136700015515,0.01674639992415905,49.56123530003242,[np.float64(0.35648148148148145)],[np.float64(-0.17037037037037037)],[1],[0],[0],[0.8679635000880808],[None],5,001,2025-09-30_15h59.34.260,Visual Search,,2025.1.1,60.09568430757593,2025-09-30 16h01.23.710853 +0530,
23,0,23,[np.float64(0.18888888888888888)],[np.float64(-0.15)],[1],[0],[0],[1.0083753000944853],[None],23,0,23,0,49.57451800000854,,5,49.57000770000741,49.57451800000854,49.57451800000854,0.008588500088080764,50.57847830001265,[np.float64(0.18888888888888888)],[np.float64(-0.15)],[1],[0],[0],[1.0083753000944853],[None],5,001,2025-09-30_15h59.34.260,Visual Search,,2025.1.1,60.09568430757593,2025-09-30 16h01.23.710853 +0530,
24,0,24,[np.float64(0.2037037037037037)],[np.float64(0.462037037037037)],[1],[0],[0],[1.2742347999010235],['target'],24,0,24,0,50.591271199984476,,5,50.587039300007746,50.591271199984476,50.591271199984476,0.00838190014474094,51.861369899939746,[np.float64(0.2037037037037037)],[np.float64(0.462037037037037)],[1],[0],[0],[1.2742347999010235],['target'],5,001,2025-09-30_15h59.34.260,Visual Search,,2025.1.1,60.09568430757593,2025-09-30 16h01.23.710853 +0530,
25,0,25,[np.float64(-0.27685185185185185)],[np.float64(0.2638888888888889)],[1],[0],[0],[1.200272399932146],[None],25,0,25,0,51.88399189990014,,10,51.87788589997217,51.88399189990014,51.88399189990014,0.01636999985203147,53.07824549986981,[np.float64(-0.27685185185185185)],[np.float64(0.2638888888888889)],[1],[0],[0],[1.200272399932146],[None],5,001,2025-09-30_15h59.34.260,Visual Search,,2025.1.1,60.09568430757593,2025-09-30 16h01.23.710853 +0530,
26,0,26,[np.float64(-0.24537037037037038)],[np.float64(0.08333333333333333)],[1],[0],[0],[1.3970278999768198],['target'],26,0,26,0,53.10368109983392,,10,53.097935299854726,53.10368109983392,53.10368109983392,0.01948739984072745,54.49506779992953,[np.float64(-0.24537037037037038)],[np.float64(0.08333333333333333)],[1],[0],[0],[1.3970278999768198],['target'],5,001,2025-09-30_15h59.34.260,Visual Search,,2025.1.1,60.09568430757593,2025-09-30 16h01.23.710853 +0530,
27,0,27,[np.float64(0.025925925925925925)],[np.float64(-0.14351851851851852)],[1],[0],[0],[1.4076221000868827],['target'],27,0,27,0,54.509248999878764,,5,54.50488689984195,54.509248999878764,54.509248999878764,0.009612899972125888,55.91262309998274,[np.float64(0.025925925925925925)],[np.float64(-0.14351851851851852)],[1],[0],[0],[1.4076221000868827],['target'],5,001,2025-09-30_15h59.34.260,Visual Search,,2025.1.1,60.09568430757593,2025-09-30 16h01.23.710853 +0530,
28,0,28,[np.float64(0.3388888888888889)],[np.float64(-0.028703703703703703)],[1],[0],[0],[1.1980570000596344],['target'],28,0,28,0,55.9352642998565,,10,55.929381099995226,55.9352642998565,55.9352642998565,0.016561000142246485,57.12754109990783,[np.float64(0.3388888888888889)],[np.float64(-0.028703703703703703)],[1],[0],[0],[1.1980570000596344],['target'],5,001,2025-09-30_15h59.34.260,Visual Search,,2025.1.1,60.09568430757593,2025-09-30 16h01.23.710853 +0530,
29,0,29,[np.float64(-0.4685185185185185)],[np.float64(-0.003703703703703704)],[1],[0],[0],[1.0673316998872906],['target'],29,0,29,0,57.15021330001764,,10,57.1439125998877,57.15021330001764,57.15021330001764,0.01587840006686747,58.211344099836424,[np.float64(-0.4685185185185185)],[np.float64(-0.003703703703703704)],[1],[0],[0],[1.0673316998872906],['target'],5,001,2025-09-30_15h59.34.260,Visual Search,,2025.1.1,60.09568430757593,2025-09-30 16h01.23.710853 +0530,
30,0,30,[np.float64(-0.08518518518518518)],[np.float64(0.22037037037037038)],[1],[0],[0],[1.291499099927023],['target'],30,0,30,0,58.22670989995822,,5,58.22239729994908,58.22670989995822,58.22670989995822,0.010846199933439493,59.514012899948284,[np.float64(-0.08518518518518518)],[np.float64(0.22037037037037038)],[1],[0],[0],[1.291499099927023],['target'],5,001,2025-09-30_15h59.34.260,Visual Search,,2025.1.1,60.09568430757593,2025-09-30 16h01.23.710853 +0530,
31,0,31,[np.float64(-0.18425925925925926)],[np.float64(-0.27314814814814814)],[1],[0],[0],[1.0639780999626964],['target'],31,0,31,0,59.53606279985979,,10,59.53017539996654,59.53606279985979,59.53606279985979,0.015968100167810917,60.59425670001656,[np.float64(-0.18425925925925926)],[np.float64(-0.27314814814814814)],[1],[0],[0],[1.0639780999626964],['target'],5,001,2025-09-30_15h59.34.260,Visual Search,,2025.1.1,60.09568430757593,2025-09-30 16h01.23.710853 +0530,
32,0,32,[np.float64(-0.34444444444444444)],[np.float64(0.22407407407407406)],[1],[0],[0],[1.1385296999942511],[None],32,0,32,0,60.60776069993153,,5,60.60377259994857,60.60776069993153,60.60776069993153,0.009305099956691265,61.7423695998732,[np.float64(-0.34444444444444444)],[np.float64(0.22407407407407406)],[1],[0],[0],[1.1385296999942511],[None],5,001,2025-09-30_15h59.34.260,Visual Search,,2025.1.1,60.09568430757593,2025-09-30 16h01.23.710853 +0530,
33,0,33,[np.float64(0.4083333333333333)],[np.float64(0.041666666666666664)],[1],[0],[0],[1.2592597000766546],['target'],33,0,33,0,61.756234699860215,,5,61.75167139992118,61.756234699860215,61.756234699860215,0.009189599892124534,63.011041099904105,[np.float64(0.4083333333333333)],[np.float64(0.041666666666666664)],[1],[0],[0],[1.2592597000766546],['target'],5,001,2025-09-30_15h59.34.260,Visual Search,,2025.1.1,60.09568430757593,2025-09-30 16h01.23.710853 +0530,
34,0,34,[np.float64(-0.002777777777777778)],[np.float64(-0.42777777777777776)],[1],[0],[0],[1.1837512000929564],['target'],34,0,34,0,63.034826199989766,,10,63.02869930001907,63.034826199989766,63.034826199989766,0.017471699975430965,64.21255419985391,[np.float64(-0.002777777777777778)],[np.float64(-0.42777777777777776)],[1],[0],[0],[1.1837512000929564],['target'],5,001,2025-09-30_15h59.34.260,Visual Search,,2025.1.1,60.09568430757593,2025-09-30 16h01.23.710853 +0530,
35,0,35,[np.float64(0.262037037037037)],[np.float64(-0.26944444444444443)],[1],[0],[0],[1.1228199999313802],['target'],35,0,35,0,64.22728759981692,,5,64.22307109995745,64.22728759981692,64.22728759981692,0.010299300076439977,65.3459873998072,[np.float64(0.262037037037037)],[np.float64(-0.26944444444444443)],[1],[0],[0],[1.1228199999313802],['target'],5,001,2025-09-30_15h59.34.260,Visual Search,,2025.1.1,60.09568430757593,2025-09-30 16h01.23.710853 +0530,
36,0,36,[np.float64(-0.14722222222222223)],[np.float64(-0.16203703703703703)],[1],[0],[0],[1.4483556998893619],['target'],36,0,36,0,65.36763229989447,,10,65.3617267999798,65.36763229989447,65.36763229989447,0.015551800141111016,66.81019559991546,[np.float64(-0.14722222222222223)],[np.float64(-0.16203703703703703)],[1],[0],[0],[1.4483556998893619],['target'],5,001,2025-09-30_15h59.34.260,Visual Search,,2025.1.1,60.09568430757593,2025-09-30 16h01.23.710853 +0530,
37,0,37,[np.float64(-0.14814814814814814)],[np.float64(0.44722222222222224)],[1],[0],[0],[1.1685027000494301],['target'],37,0,37,0,66.8322466998361,,10,66.8264764000196,66.8322466998361,66.8322466998361,0.016051100101321936,67.995067599928,[np.float64(-0.14814814814814814)],[np.float64(0.44722222222222224)],[1],[0],[0],[1.1685027000494301],['target'],5,001,2025-09-30_15h59.34.260,Visual Search,,2025.1.1,60.09568430757593,2025-09-30 16h01.23.710853 +0530,
38,0,38,[np.float64(0.2574074074074074)],[np.float64(0.1925925925925926)],[1],[0],[0],[1.2247589998878539],['target'],38,0,38,0,68.00795509992167,,5,68.00363329984248,68.00795509992167,68.00795509992167,0.008381000021472573,69.22849939996377,[np.float64(0.2574074074074074)],[np.float64(0.1925925925925926)],[1],[0],[0],[1.2247589998878539],['target'],5,001,2025-09-30_15h59.34.260,Visual Search,,2025.1.1,60.09568430757593,2025-09-30 16h01.23.710853 +0530,
39,0,39,[np.float64(-0.03425925925925926)],[np.float64(0.04537037037037037)],[1],[0],[0],[1.0174076999537647],['target'],39,0,39,0,69.24948879983276,,10,69.24366519995965,69.24948879983276,69.24948879983276,0.014982499880716205,70.26117419986986,[np.float64(-0.03425925925925926)],[np.float64(0.04537037037037037)],[1],[0],[0],[1.0174076999537647],['target'],5,001,2025-09-30_15h59.34.260,Visual Search,,2025.1.1,60.09568430757593,2025-09-30 16h01.23.710853 +0530,
40,0,40,[np.float64(0.40925925925925927)],[np.float64(0.42777777777777776)],[1],[0],[0],[1.3737279998604208],['target'],40,0,40,0,70.27451010001823,,5,70.27026749984361,70.27451010001823,70.27451010001823,0.008887500036507845,71.64410229981877,[np.float64(0.40925925925925927)],[np.float64(0.42777777777777776)],[1],[0],[0],[1.3737279998604208],['target'],5,001,2025-09-30_15h59.34.260,Visual Search,,2025.1.1,60.09568430757593,2025-09-30 16h01.23.710853 +0530,
41,0,41,[np.float64(-0.23981481481481481)],[np.float64(-0.387037037037037)],[1],[0],[0],[1.207307399949059],['target'],41,0,41,0,71.65927849989384,,5,71.65498829982243,71.65927849989384,71.65927849989384,0.010721500031650066,72.86239509982988,[np.float64(-0.23981481481481481)],[np.float64(-0.387037037037037)],[1],[0],[0],[1.207307399949059],['target'],5,001,2025-09-30_15h59.34.260,Visual Search,,2025.1.1,60.09568430757593,2025-09-30 16h01.23.710853 +0530,
42,0,42,[np.float64(-0.4527777777777778)],[np.float64(0.08148148148148149)],[1],[0],[0],[1.0672363000921905],['target'],42,0,42,0,72.88492739992216,,10,72.87848059996031,72.88492739992216,72.88492739992216,0.0159126000944525,73.94585559982806,[np.float64(-0.4527777777777778)],[np.float64(0.08148148148148149)],[1],[0],[0],[1.0672363000921905],['target'],5,001,2025-09-30_15h59.34.260,Visual Search,,2025.1.1,60.09568430757593,2025-09-30 16h01.23.710853 +0530,
43,0,43,[np.float64(-0.49722222222222223)],[np.float64(0.023148148148148147)],[1],[0],[0],[0.8701633000746369],['target'],43,0,43,0,73.96073059993796,,5,73.95644350000657,73.96073059993796,73.96073059993796,0.010340900160372257,74.82668709987774,[np.float64(-0.49722222222222223)],[np.float64(0.023148148148148147)],[1],[0],[0],[0.8701633000746369],['target'],5,001,2025-09-30_15h59.34.260,Visual Search,,2025.1.1,60.09568430757593,2025-09-30 16h01.23.710853 +0530,
44,0,44,[np.float64(0.20833333333333334)],[np.float64(0.31574074074074077)],[1],[0],[0],[1.1528287001419812],['target'],44,0,44,0,74.84654519986361,,10,74.84068369981833,74.84654519986361,74.84654519986361,0.013860199833288789,75.99360179994255,[np.float64(0.20833333333333334)],[np.float64(0.31574074074074077)],[1],[0],[0],[1.1528287001419812],['target'],5,001,2025-09-30_15h59.34.260,Visual Search,,2025.1.1,60.09568430757593,2025-09-30 16h01.23.710853 +0530,
45,0,45,[np.float64(-0.014814814814814815)],[np.float64(-0.33796296296296297)],[1],[0],[0],[1.5863268000539392],['target'],45,0,45,0,76.01624609995633,,10,76.0096568998415,76.01624609995633,76.01624609995633,0.01587680005468428,77.59609539993107,[np.float64(-0.014814814814814815)],[np.float64(-0.33796296296296297)],[1],[0],[0],[1.5863268000539392],['target'],5,001,2025-09-30_15h59.34.260,Visual Search,,2025.1.1,60.09568430757593,2025-09-30 16h01.23.710853 +0530,
46,0,46,[np.float64(0.022222222222222223)],[np.float64(0.2851851851851852)],[1],[0],[0],[1.0392499999143183],['target'],46,0,46,0,77.60958699998446,,5,77.60543549992144,77.60958699998446,77.60958699998446,0.00912509998306632,78.6447937998455,[np.float64(0.022222222222222223)],[np.float64(0.2851851851851852)],[1],[0],[0],[1.0392499999143183],['target'],5,001,2025-09-30_15h59.34.260,Visual Search,,2025.1.1,60.09568430757593,2025-09-30 16h01.23.710853 +0530,
47,0,47,[np.float64(-0.4222222222222222)],[np.float64(-0.15648148148148147)],[1],[0],[0],[1.316091600107029],['target'],47,0,47,0,78.66628749994561,,10,78.66023289994337,78.66628749994561,78.66628749994561,0.015263800043612719,79.97643139981665,[np.float64(-0.4222222222222222)],[np.float64(-0.15648148148148147)],[1],[0],[0],[1.316091600107029],['target'],5,001,2025-09-30_15h59.34.260,Visual Search,,2025.1.1,60.09568430757593,2025-09-30 16h01.23.710853 +0530,
48,0,48,[np.float64(0.028703703703703703)],[np.float64(-0.11944444444444445)],[1],[0],[0],[1.0941773999948055],['target'],48,0,48,0,79.98891159985214,,5,79.98470359994099,79.98891159985214,79.98891159985214,0.008089900016784668,81.07899609999731,[np.float64(0.028703703703703703)],[np.float64(-0.11944444444444445)],[1],[0],[0],[1.0941773999948055],['target'],5,001,2025-09-30_15h59.34.260,Visual Search,,2025.1.1,60.09568430757593,2025-09-30 16h01.23.710853 +0530,
49,0,49,[np.float64(-0.17222222222222222)],[np.float64(-0.17407407407407408)],[1],[0],[0],[1.0716069000773132],['target'],49,0,49,0,81.0940769999288,,5,81.08990469994023,81.0940769999288,81.0940769999288,0.01071029994636774,82.1616065998096,[np.float64(-0.17222222222222222)],[np.float64(-0.17407407407407408)],[1],[0],[0],[1.0716069000773132],['target'],5,001,2025-09-30_15h59.34.260,Visual Search,,2025.1.1,60.09568430757593,2025-09-30 16h01.23.710853 +0530,
50,0,50,[np.float64(0.30648148148148147)],[np.float64(0.23148148148148148)],[1],[0],[0],[1.0983996998984367],['target'],50,0,50,0,82.18363079987466,,10,82.17759609990753,82.18363079987466,82.18363079987466,0.015819299966096878,83.27606209996156,[np.float64(0.30648148148148147)],[np.float64(0.23148148148148148)],[1],[0],[0],[1.0983996998984367],['target'],5,001,2025-09-30_15h59.34.260,Visual Search,,2025.1.1,60.09568430757593,2025-09-30 16h01.23.710853 +0530,
51,0,51,[np.float64(-0.2935185185185185)],[np.float64(-0.2712962962962963)],[1],[0],[0],[1.2982334999833256],[None],51,0,51,0,83.29800389986485,,10,83.29200549982488,83.29800389986485,83.29800389986485,0.015811000019311905,84.59032809990458,[np.float64(-0.2935185185185185)],[np.float64(-0.2712962962962963)],[1],[0],[0],[1.2982334999833256],[None],5,001,2025-09-30_15h59.34.260,Visual Search,,2025.1.1,60.09568430757593,2025-09-30 16h01.23.710853 +0530,
52,0,52,[np.float64(-0.25)],[np.float64(-0.4722222222222222)],[1],[0],[0],[1.9142131998669356],['target'],52,0,52,0,84.60575059987605,,5,84.59846029989421,84.60575059987605,84.60575059987605,0.007949799997732043,86.51278320001438,[np.float64(-0.25)],[np.float64(-0.4722222222222222)],[1],[0],[0],[1.9142131998669356],['target'],5,001,2025-09-30_15h59.34.260,Visual Search,,2025.1.1,60.09568430757593,2025-09-30 16h01.23.710853 +0530,
53,0,53,[np.float64(-0.10277777777777777)],[np.float64(-0.31574074074074077)],[1],[0],[0],[1.2016350000631064],['target'],53,0,53,0,86.53404579986818,,10,86.52788039995357,86.53404579986818,86.53404579986818,0.014924300136044621,87.72991129988804,[np.float64(-0.10277777777777777)],[np.float64(-0.31574074074074077)],[1],[0],[0],[1.2016350000631064],['target'],5,001,2025-09-30_15h59.34.260,Visual Search,,2025.1.1,60.09568430757593,2025-09-30 16h01.23.710853 +0530,
54,0,54,[np.float64(-0.24259259259259258)],[np.float64(-0.46944444444444444)],[1],[0],[0],[1.3148624000605196],['target'],54,0,54,0,87.75240679993294,,10,87.74640709999949,87.75240679993294,87.75240679993294,0.016226300038397312,89.06137249991298,[np.float64(-0.24259259259259258)],[np.float64(-0.46944444444444444)],[1],[0],[0],[1.3148624000605196],['target'],5,001,2025-09-30_15h59.34.260,Visual Search,,2025.1.1,60.09568430757593,2025-09-30 16h01.23.710853 +0530,
55,0,55,[np.float64(-0.16203703703703703)],[np.float64(-0.41574074074074074)],[1],[0],[0],[1.125822399975732],['target'],55,0,55,0,89.07465490000322,,5,89.07030799984932,89.07465490000322,89.07465490000322,0.00872179982252419,90.1962311998941,[np.float64(-0.16203703703703703)],[np.float64(-0.41574074074074074)],[1],[0],[0],[1.125822399975732],['target'],5,001,2025-09-30_15h59.34.260,Visual Search,,2025.1.1,60.09568430757593,2025-09-30 16h01.23.710853 +0530,
56,0,56,[np.float64(-0.22037037037037038)],[np.float64(-0.20925925925925926)],[1],[0],[0],[1.33866099989973],['target'],56,0,56,0,90.20957589987665,,5,90.20520059997216,90.20957589987665,90.20957589987665,0.008790099993348122,91.54395989980549,[np.float64(-0.22037037037037038)],[np.float64(-0.20925925925925926)],[1],[0],[0],[1.33866099989973],['target'],5,001,2025-09-30_15h59.34.260,Visual Search,,2025.1.1,60.09568430757593,2025-09-30 16h01.23.710853 +0530,
57,0,57,[np.float64(0.43148148148148147)],[np.float64(-0.07037037037037037)],[1],[0],[0],[1.1488039998803288],['target'],57,0,57,0,91.5650768999476,,10,91.55916229984723,91.5650768999476,91.5650768999476,0.015039699850603938,92.70813809987158,[np.float64(0.43148148148148147)],[np.float64(-0.07037037037037037)],[1],[0],[0],[1.1488039998803288],['target'],5,001,2025-09-30_15h59.34.260,Visual Search,,2025.1.1,60.09568430757593,2025-09-30 16h01.23.710853 +0530,
58,0,58,[np.float64(-0.33611111111111114)],[np.float64(-0.14629629629629629)],[1],[0],[0],[1.1164772999472916],[None],58,0,58,0,92.73306209989823,,10,92.72708259988576,92.73306209989823,92.73306209989823,0.01855999999679625,93.84366089990363,[np.float64(-0.33611111111111114)],[np.float64(-0.14629629629629629)],[1],[0],[0],[1.1164772999472916],[None],5,001,2025-09-30_15h59.34.260,Visual Search,,2025.1.1,60.09568430757593,2025-09-30 16h01.23.710853 +0530,
59,0,59,[np.float64(0.08981481481481482)],[np.float64(-0.3509259259259259)],[1],[0],[0],[1.3171500999014825],[None],59,0,59,0,93.86500249989331,,10,93.85894669988193,93.86500249989331,93.86500249989331,0.015087799867615104,95.17616629996337,[np.float64(0.08981481481481482)],[np.float64(-0.3509259259259259)],[1],[0],[0],[1.3171500999014825],[None],5,001,2025-09-30_15h59.34.260,Visual Search,,2025.1.1,60.09568430757593,2025-09-30 16h01.23.710853 +0530,
60,0,60,[np.float64(-0.125)],[np.float64(0.13796296296296295)],[1],[0],[0],[1.058661999879405],['target'],60,0,60,0,95.18882239982486,,5,95.18392759980634,95.18882239982486,95.18882239982486,0.007613199995830655,96.24266099999659,[np.float64(-0.125)],[np.float64(0.13796296296296295)],[1],[0],[0],[1.058661999879405],['target'],5,001,2025-09-30_15h59.34.260,Visual Search,,2025.1.1,60.09568430757593,2025-09-30 16h01.23.710853 +0530,
61,0,61,[np.float64(-0.2361111111111111)],[np.float64(0.19907407407407407)],[1],[0],[0],[0.9732516000512987],['target'],61,0,61,0,96.25820169993676,,5,96.25357239996083,96.25820169993676,96.25820169993676,0.010784599930047989,97.2269135999959,[np.float64(-0.2361111111111111)],[np.float64(0.19907407407407407)],[1],[0],[0],[0.9732516000512987],['target'],5,001,2025-09-30_15h59.34.260,Visual Search,,2025.1.1,60.09568430757593,2025-09-30 16h01.23.710853 +0530,
62,0,62,[np.float64(-0.2175925925925926)],[np.float64(-0.18796296296296297)],[1],[0],[0],[1.074910999974236],['target'],62,0,62,0,97.23943359986879,,5,97.23520489991643,97.23943359986879,97.23943359986879,0.00814000004902482,98.31019799993373,[np.float64(-0.2175925925925926)],[np.float64(-0.18796296296296297)],[1],[0],[0],[1.074910999974236],['target'],5,001,2025-09-30_15h59.34.260,Visual Search,,2025.1.1,60.09568430757593,2025-09-30 16h01.23.710853 +0530,
63,0,63,[np.float64(0.13425925925925927)],[np.float64(-0.24166666666666667)],[1],[0],[0],[1.1720255000982434],[None],63,0,63,0,98.32675549993291,,5,98.32246279995888,98.32675549993291,98.32675549993291,0.012129300041124225,99.49459669995122,[np.float64(0.13425925925925927)],[np.float64(-0.24166666666666667)],[1],[0],[0],[1.1720255000982434],[None],5,001,2025-09-30_15h59.34.260,Visual Search,,2025.1.1,60.09568430757593,2025-09-30 16h01.23.710853 +0530,
64,0,64,[np.float64(-0.23981481481481481)],[np.float64(-0.2351851851851852)],[1],[0],[0],[1.1024148999713361],['target'],64,0,64,0,99.51588329998776,,10,99.5099122999236,99.51588329998776,99.51588329998776,0.015128699829801917,100.61242559994571,[np.float64(-0.23981481481481481)],[np.float64(-0.2351851851851852)],[1],[0],[0],[1.1024148999713361],['target'],5,001,2025-09-30_15h59.34.260,Visual Search,,2025.1.1,60.09568430757593,2025-09-30 16h01.23.710853 +0530,
65,0,65,[np.float64(0.34444444444444444)],[np.float64(-0.15185185185185185)],[1],[0],[0],[1.2453272000420839],[None],65,0,65,0,100.63480539992452,,10,100.6289043999277,100.63480539992452,100.63480539992452,0.01626449986360967,101.87434690003283,[np.float64(0.34444444444444444)],[np.float64(-0.15185185185185185)],[1],[0],[0],[1.2453272000420839],[None],5,001,2025-09-30_15h59.34.260,Visual Search,,2025.1.1,60.09568430757593,2025-09-30 16h01.23.710853 +0530,
66,0,66,[np.float64(-0.13425925925925927)],[np.float64(-0.1361111111111111)],[1],[0],[0],[1.1684397000353783],['target'],66,0,66,0,101.89645879995078,,10,101.88978550001048,101.89645879995078,101.89645879995078,0.015207000076770782,103.05838379985653,[np.float64(-0.13425925925925927)],[np.float64(-0.1361111111111111)],[1],[0],[0],[1.1684397000353783],['target'],5,001,2025-09-30_15h59.34.260,Visual Search,,2025.1.1,60.09568430757593,2025-09-30 16h01.23.710853 +0530,
67,0,67,[np.float64(-0.04814814814814815)],[np.float64(0.49166666666666664)],[1],[0],[0],[1.4095073000062257],['target'],67,0,67,0,103.07500199996866,,5,103.07048869994469,103.07500199996866,103.07500199996866,0.011563499923795462,104.48009780002758,[np.float64(-0.04814814814814815)],[np.float64(0.49166666666666664)],[1],[0],[0],[1.4095073000062257],['target'],5,001,2025-09-30_15h59.34.260,Visual Search,,2025.1.1,60.09568430757593,2025-09-30 16h01.23.710853 +0530,
68,0,68,[np.float64(0.44814814814814813)],[np.float64(-0.14074074074074075)],[1],[0],[0],[1.295939999865368],[None],68,0,68,0,104.5019670999609,,10,104.4961575998459,104.5019670999609,104.5019670999609,0.015874699922278523,105.79219689988531,[np.float64(0.44814814814814813)],[np.float64(-0.14074074074074075)],[1],[0],[0],[1.295939999865368],[None],5,001,2025-09-30_15h59.34.260,Visual Search,,2025.1.1,60.09568430757593,2025-09-30 16h01.23.710853 +0530,
69,0,69,[np.float64(-0.19907407407407407)],[np.float64(0.2712962962962963)],[1],[0],[0],[1.5524351000785828],['target'],69,0,69,0,105.81378939980641,,10,105.8077877999749,105.81378939980641,105.81378939980641,0.015369300032034516,107.36030990001746,[np.float64(-0.19907407407407407)],[np.float64(0.2712962962962963)],[1],[0],[0],[1.5524351000785828],['target'],5,001,2025-09-30_15h59.34.260,Visual Search,,2025.1.1,60.09568430757593,2025-09-30 16h01.23.710853 +0530,
70,0,70,[np.float64(0.4388888888888889)],[np.float64(-0.30277777777777776)],[1],[0],[0],[1.110393299954012],['target'],70,0,70,0,107.37281969981268,,5,107.36864009988494,107.37281969981268,107.37281969981268,0.008148499997332692,108.47914179996587,[np.float64(0.4388888888888889)],[np.float64(-0.30277777777777776)],[1],[0],[0],[1.110393299954012],['target'],5,001,2025-09-30_15h59.34.260,Visual Search,,2025.1.1,60.09568430757593,2025-09-30 16h01.23.710853 +0530,
71,0,71,[np.float64(0.04814814814814815)],[np.float64(0.22870370370370371)],[1],[0],[0],[1.396683600032702],['target'],71,0,71,0,108.50209510000423,,10,108.49571629986167,108.50209510000423,108.50209510000423,0.016381400171667337,109.89246429991908,[np.float64(0.04814814814814815)],[np.float64(0.22870370370370371)],[1],[0],[0],[1.396683600032702],['target'],5,001,2025-09-30_15h59.34.260,Visual Search,,2025.1.1,60.09568430757593,2025-09-30 16h01.23.710853 +0530,
72,0,72,[np.float64(-0.07407407407407407)],[np.float64(-0.22777777777777777)],[1],[0],[0],[1.2730227999854833],['target'],72,0,72,0,109.91177649982274,,10,109.90615960001014,109.91177649982274,109.91177649982274,0.013547700131312013,111.17928739986382,[np.float64(-0.07407407407407407)],[np.float64(-0.22777777777777777)],[1],[0],[0],[1.2730227999854833],['target'],5,001,2025-09-30_15h59.34.260,Visual Search,,2025.1.1,60.09568430757593,2025-09-30 16h01.23.710853 +0530,
73,0,73,[np.float64(0.027777777777777776)],[np.float64(-0.4222222222222222)],[1],[0],[0],[1.2220022999681532],['target'],73,0,73,0,111.19320610002615,,5,111.18884129985236,111.19320610002615,111.19320610002615,0.009339000098407269,112.4109432999976,[np.float64(0.027777777777777776)],[np.float64(-0.4222222222222222)],[1],[0],[0],[1.2220022999681532],['target'],5,001,2025-09-30_15h59.34.260,Visual Search,,2025.1.1,60.09568430757593,2025-09-30 16h01.23.710853 +0530,
74,0,74,[np.float64(-0.3814814814814815)],[np.float64(0.053703703703703705)],[1],[0],[0],[1.3808832000941038],['target'],74,0,74,0,112.43150679999962,,10,112.42573089990765,112.43150679999962,112.43150679999962,0.014627000084146857,113.80668559996411,[np.float64(-0.3814814814814815)],[np.float64(0.053703703703703705)],[1],[0],[0],[1.3808832000941038],['target'],5,001,2025-09-30_15h59.34.260,Visual Search,,2025.1.1,60.09568430757593,2025-09-30 16h01.23.710853 +0530,
75,0,75,[np.float64(-0.11574074074074074)],[np.float64(0.28055555555555556)],[1],[0],[0],[1.7711262998636812],[None],75,0,75,0,113.82795429998077,,10,113.82176769990474,113.82795429998077,113.82795429998077,0.014951199991628528,115.59299259982072,[np.float64(-0.11574074074074074)],[np.float64(0.28055555555555556)],[1],[0],[0],[1.7711262998636812],[None],5,001,2025-09-30_15h59.34.260,Visual Search,,2025.1.1,60.09568430757593,2025-09-30 16h01.23.710853 +0530,
76,0,76,[np.float64(0.3194444444444444)],[np.float64(-0.10277777777777777)],[1],[0],[0],[1.333228100091219],['target'],76,0,76,0,115.61312059988268,,10,115.60706939990632,115.61312059988268,115.61312059988268,0.01391550013795495,116.94042179989628,[np.float64(0.3194444444444444)],[np.float64(-0.10277777777777777)],[1],[0],[0],[1.333228100091219],['target'],5,001,2025-09-30_15h59.34.260,Visual Search,,2025.1.1,60.09568430757593,2025-09-30 16h01.23.710853 +0530,
77,0,77,[np.float64(-0.1)],[np.float64(-0.10555555555555556)],[1],[0],[0],[1.169082700042054],['target'],77,0,77,0,116.96238469984382,,10,116.95650490000844,116.96238469984382,116.96238469984382,0.01580310007557273,118.1256568999961,[np.float64(-0.1)],[np.float64(-0.10555555555555556)],[1],[0],[0],[1.169082700042054],['target'],5,001,2025-09-30_15h59.34.260,Visual Search,,2025.1.1,60.09568430757593,2025-09-30 16h01.23.710853 +0530,
78,0,78,[np.float64(0.22314814814814815)],[np.float64(-0.23703703703703705)],[1],[0],[0],[1.245110800024122],['target'],78,0,78,0,118.13863039994612,,5,118.13304079999216,118.13863039994612,118.13863039994612,0.007247400004416704,119.37826909986325,[np.float64(0.22314814814814815)],[np.float64(-0.23703703703703705)],[1],[0],[0],[1.245110800024122],['target'],5,001,2025-09-30_15h59.34.260,Visual Search,,2025.1.1,60.09568430757593,2025-09-30 16h01.23.710853 +0530,
79,0,79,[np.float64(0.03425925925925926)],[np.float64(-0.44537037037037036)],[1],[0],[0],[1.447821200126782],['target'],79,0,79,0,119.39855089993216,,10,119.39253409998491,119.39855089993216,119.39855089993216,0.01410469994880259,120.840487399837,[np.float64(0.03425925925925926)],[np.float64(-0.44537037037037036)],[1],[0],[0],[1.447821200126782],['target'],5,001,2025-09-30_15h59.34.260,Visual Search,,2025.1.1,60.09568430757593,2025-09-30 16h01.23.710853 +0530,
80,0,80,[np.float64(0.47314814814814815)],[np.float64(-0.07037037037037037)],[1],[0],[0],[1.2501988001167774],['target'],80,0,80,0,120.86290549999103,,10,120.85696549993008,120.86290549999103,120.86290549999103,0.016230299836024642,122.10726999980398,[np.float64(0.47314814814814815)],[np.float64(-0.07037037037037037)],[1],[0],[0],[1.2501988001167774],['target'],5,001,2025-09-30_15h59.34.260,Visual Search,,2025.1.1,60.09568430757593,2025-09-30 16h01.23.710853 +0530,
81,0,81,[np.float64(-0.49166666666666664)],[np.float64(0.2675925925925926)],[1],[0],[0],[2.403056599898264],['target'],81,0,81,0,122.13110809982754,,10,122.12492909980938,122.13110809982754,122.13110809982754,0.017446199897676706,124.52807220001705,[np.float64(-0.49166666666666664)],[np.float64(0.2675925925925926)],[1],[0],[0],[2.403056599898264],['target'],5,001,2025-09-30_15h59.34.260,Visual Search,,2025.1.1,60.09568430757593,2025-09-30 16h01.23.710853 +0530,
82,0,82,[np.float64(-0.3592592592592593)],[np.float64(0.3287037037037037)],[1],[0],[0],[1.0337718999944627],['target'],82,0,82,0,124.54896479984745,,10,124.54326969990507,124.54896479984745,124.54896479984745,0.015021400060504675,125.57714349986054,[np.float64(-0.3592592592592593)],[np.float64(0.3287037037037037)],[1],[0],[0],[1.0337718999944627],['target'],5,001,2025-09-30_15h59.34.260,Visual Search,,2025.1.1,60.09568430757593,2025-09-30 16h01.23.710853 +0530,
83,0,83,[np.float64(-0.09537037037037037)],[np.float64(-0.35833333333333334)],[1],[0],[0],[1.2203654998447746],[None],83,0,83,0,125.59001439996064,,5,125.58616289985366,125.59001439996064,125.59001439996064,0.008818200090900064,126.80664799991064,[np.float64(-0.09537037037037037)],[np.float64(-0.35833333333333334)],[1],[0],[0],[1.2203654998447746],[None],5,001,2025-09-30_15h59.34.260,Visual Search,,2025.1.1,60.09568430757593,2025-09-30 16h01.23.710853 +0530,
84,0,84,[np.float64(-0.3472222222222222)],[np.float64(-0.26944444444444443)],[1],[0],[0],[1.0659690001048148],['target'],84,0,84,0,126.83294019987807,,10,126.82657349994406,126.83294019987807,126.83294019987807,0.019738900009542704,127.89260999998078,[np.float64(-0.3472222222222222)],[np.float64(-0.26944444444444443)],[1],[0],[0],[1.0659690001048148],['target'],5,001,2025-09-30_15h59.34.260,Visual Search,,2025.1.1,60.09568430757593,2025-09-30 16h01.23.710853 +0530,
85,0,85,[np.float64(0.1675925925925926)],[np.float64(-0.2037037037037037)],[1],[0],[0],[1.1448191001545638],[None],85,0,85,0,127.90522610000335,,5,127.90004509990104,127.90522610000335,127.90522610000335,0.007298600161448121,129.044981099898,[np.float64(0.1675925925925926)],[np.float64(-0.2037037037037037)],[1],[0],[0],[1.1448191001545638],[None],5,001,2025-09-30_15h59.34.260,Visual Search,,2025.1.1,60.09568430757593,2025-09-30 16h01.23.710853 +0530,
86,0,86,[np.float64(-0.1037037037037037)],[np.float64(-0.43703703703703706)],[1],[0],[0],[0.9462105000857264],[None],86,0,86,0,129.06932839984074,,10,129.06323229987174,129.06932839984074,129.06932839984074,0.018057500012218952,130.00953239994124,[np.float64(-0.1037037037037037)],[np.float64(-0.43703703703703706)],[1],[0],[0],[0.9462105000857264],[None],5,001,2025-09-30_15h59.34.260,Visual Search,,2025.1.1,60.09568430757593,2025-09-30 16h01.23.710853 +0530,
87,0,87,[np.float64(0.35833333333333334)],[np.float64(0.03148148148148148)],[1],[0],[0],[1.1417029998265207],['target'],87,0,87,0,130.0232068998739,,5,130.01896469993517,130.0232068998739,130.0232068998739,0.009243899956345558,131.16077620000578,[np.float64(0.35833333333333334)],[np.float64(0.03148148148148148)],[1],[0],[0],[1.1417029998265207],['target'],5,001,2025-09-30_15h59.34.260,Visual Search,,2025.1.1,60.09568430757593,2025-09-30 16h01.23.710853 +0530,
88,0,88,[np.float64(-0.3472222222222222)],[np.float64(-0.2074074074074074)],[1],[0],[0],[1.1238895000424236],['target'],88,0,88,0,131.17482910002582,,5,131.17078499984927,131.17482910002582,131.17482910002582,0.009828000096604228,132.2947903999593,[np.float64(-0.3472222222222222)],[np.float64(-0.2074074074074074)],[1],[0],[0],[1.1238895000424236],['target'],5,001,2025-09-30_15h59.34.260,Visual Search,,2025.1.1,60.09568430757593,2025-09-30 16h01.23.710853 +0530,
89,0,89,[np.float64(0.36666666666666664)],[np.float64(0.35833333333333334)],[1],[0],[0],[1.2906210999935865],['target'],89,0,89,0,132.30820530001074,,5,132.30371739994735,132.30820530001074,132.30820530001074,0.008748899912461638,133.594459899934,[np.float64(0.36666666666666664)],[np.float64(0.35833333333333334)],[1],[0],[0],[1.2906210999935865],['target'],5,001,2025-09-30_15h59.34.260,Visual Search,,2025.1.1,60.09568430757593,2025-09-30 16h01.23.710853 +0530,
90,0,90,[np.float64(-0.32314814814814813)],[np.float64(-0.2833333333333333)],[1],[0],[0],[1.1154392999596894],['target'],90,0,90,0,133.61976309982128,,10,133.61191969993524,133.61976309982128,133.61976309982128,0.01724490011110902,134.72746609989554,[np.float64(-0.32314814814814813)],[np.float64(-0.2833333333333333)],[1],[0],[0],[1.1154392999596894],['target'],5,001,2025-09-30_15h59.34.260,Visual Search,,2025.1.1,60.09568430757593,2025-09-30 16h01.23.710853 +0530,
91,0,91,[np.float64(0.03611111111111111)],[np.float64(0.30833333333333335)],[1],[0],[0],[1.0925537999719381],['target'],91,0,91,0,134.7424469999969,,5,134.7365114998538,134.7424469999969,134.7424469999969,0.008826000150293112,135.82917629997246,[np.float64(0.03611111111111111)],[np.float64(0.30833333333333335)],[1],[0],[0],[1.0925537999719381],['target'],5,001,2025-09-30_15h59.34.260,Visual Search,,2025.1.1,60.09568430757593,2025-09-30 16h01.23.710853 +0530,
92,0,92,[np.float64(0.1925925925925926)],[np.float64(-0.37407407407407406)],[1],[0],[0],[1.5150750998873264],['target'],92,0,92,0,135.85134709998965,,10,135.84455629996955,135.85134709998965,135.85134709998965,0.015205999836325645,137.35973579995334,[np.float64(0.1925925925925926)],[np.float64(-0.37407407407407406)],[1],[0],[0],[1.5150750998873264],['target'],5,001,2025-09-30_15h59.34.260,Visual Search,,2025.1.1,60.09568430757593,2025-09-30 16h01.23.710853 +0530,
93,0,93,[np.float64(-0.32685185185185184)],[np.float64(0.28888888888888886)],[1],[0],[0],[1.440096299862489],['target'],93,0,93,0,137.37546519981697,,5,137.37086030002683,137.37546519981697,137.37546519981697,0.010895400075241923,138.81105329981074,[np.float64(-0.32685185185185184)],[np.float64(0.28888888888888886)],[1],[0],[0],[1.440096299862489],['target'],5,001,2025-09-30_15h59.34.260,Visual Search,,2025.1.1,60.09568430757593,2025-09-30 16h01.23.710853 +0530,
94,0,94,[np.float64(0.34814814814814815)],[np.float64(0.4222222222222222)],[1],[0],[0],[1.6344747999683022],['target'],94,0,94,0,138.83198220003396,,10,138.82617040001787,138.83198220003396,138.83198220003396,0.014943600166589022,140.46076419996098,[np.float64(0.34814814814814815)],[np.float64(0.4222222222222222)],[1],[0],[0],[1.6344747999683022],['target'],5,001,2025-09-30_15h59.34.260,Visual Search,,2025.1.1,60.09568430757593,2025-09-30 16h01.23.710853 +0530,
95,0,95,[np.float64(0.2898148148148148)],[np.float64(0.025)],[1],[0],[0],[1.2148035999853164],['target'],95,0,95,0,140.48452339996584,,10,140.4776930999942,140.48452339996584,140.48452339996584,0.016678699990734458,141.69257379998453,[np.float64(0.2898148148148148)],[np.float64(0.025)],[1],[0],[0],[1.2148035999853164],['target'],5,001,2025-09-30_15h59.34.260,Visual Search,,2025.1.1,60.09568430757593,2025-09-30 16h01.23.710853 +0530,
96,0,96,[np.float64(0.325)],[np.float64(-0.3574074074074074)],[1],[0],[0],[1.2293130001053214],[None],96,0,96,0,141.70521309995092,,5,141.70014379988424,141.70521309995092,141.70521309995092,0.007425599964335561,142.9295691999141,[np.float64(0.325)],[np.float64(-0.3574074074074074)],[1],[0],[0],[1.2293130001053214],[None],5,001,2025-09-30_15h59.34.260,Visual Search,,2025.1.1,60.09568430757593,2025-09-30 16h01.23.710853 +0530,
97,0,97,[np.float64(0.0824074074074074)],[np.float64(-0.019444444444444445)],[1],[0],[0],[1.0641554000321776],[None],97,0,97,0,142.9522294998169,,10,142.9454875998199,142.9522294998169,142.9522294998169,0.015729199862107635,144.0097168998327,[np.float64(0.0824074074074074)],[np.float64(-0.019444444444444445)],[1],[0],[0],[1.0641554000321776],[None],5,001,2025-09-30_15h59.34.260,Visual Search,,2025.1.1,60.09568430757593,2025-09-30 16h01.23.710853 +0530,
98,0,98,[np.float64(-0.05555555555555555)],[np.float64(-0.012037037037037037)],[1],[0],[0],[1.1168495998717844],['target'],98,0,98,0,144.0299384999089,,10,144.0233755998779,144.0299384999089,144.0299384999089,0.013508699834346771,145.14035629993305,[np.float64(-0.05555555555555555)],[np.float64(-0.012037037037037037)],[1],[0],[0],[1.1168495998717844],['target'],5,001,2025-09-30_15h59.34.260,Visual Search,,2025.1.1,60.09568430757593,2025-09-30 16h01.23.710853 +0530,
99,0,99,[np.float64(0.2101851851851852)],[np.float64(0.049074074074074076)],[1],[0],[0],[1.2195182000286877],[None],99,0,99,0,145.16358819999732,,10,145.15704159997404,145.16358819999732,145.16358819999732,0.016427400056272745,146.37666509998962,[np.float64(0.2101851851851852)],[np.float64(0.049074074074074076)],[1],[0],[0],[1.2195182000286877],[None],5,001,2025-09-30_15h59.34.260,Visual Search,,2025.1.1,60.09568430757593,2025-09-30 16h01.23.710853 +0530,
100,0,100,[np.float64(0.1787037037037037)],[np.float64(-0.10648148148148148)],[1],[0],[0],[1.0182399998884648],['target'],100,0,100,0,146.39885209989734,,10,146.3927225000225,146.39885209989734,146.39885209989734,0.015842200024053454,147.411082000006,[np.float64(0.1787037037037037)],[np.float64(-0.10648148148148148)],[1],[0],[0],[1.0182399998884648],['target'],5,001,2025-09-30_15h59.34.260,Visual Search,,2025.1.1,60.09568430757593,2025-09-30 16h01.23.710853 +0530,
101,0,101,[np.float64(0.3111111111111111)],[np.float64(-0.3)],[1],[0],[0],[1.3193999999202788],['target'],101,0,101,0,147.42944710003212,,5,147.4246976999566,147.42944710003212,147.42944710003212,0.013347999891266227,148.7443568999879,[np.float64(0.3111111111111111)],[np.float64(-0.3)],[1],[0],[0],[1.3193999999202788],['target'],5,001,2025-09-30_15h59.34.260,Visual Search,,2025.1.1,60.09568430757593,2025-09-30 16h01.23.710853 +0530,
102,0,102,[np.float64(-0.08148148148148149)],[np.float64(0.13240740740740742)],[1],[0],[0],[1.2240951000712812],['target'],102,0,102,0,148.75778819993138,,5,148.75287149986252,148.75778819993138,148.75778819993138,0.008330499986186624,149.97705879993737,[np.float64(-0.08148148148148149)],[np.float64(0.13240740740740742)],[1],[0],[0],[1.2240951000712812],['target'],5,001,2025-09-30_15h59.34.260,Visual Search,,2025.1.1,60.09568430757593,2025-09-30 16h01.23.710853 +0530,
103,0,103,[np.float64(-0.15555555555555556)],[np.float64(-0.10555555555555556)],[1],[0],[0],[1.0179022999946028],['target'],103,0,103,0,149.99312729993835,,5,149.98811829998158,149.99312729993835,149.99312729993835,0.010907199932262301,151.00610859994777,[np.float64(-0.15555555555555556)],[np.float64(-0.10555555555555556)],[1],[0],[0],[1.0179022999946028],['target'],5,001,2025-09-30_15h59.34.260,Visual Search,,2025.1.1,60.09568430757593,2025-09-30 16h01.23.710853 +0530,
104,0,104,[np.float64(-0.000925925925925926)],[np.float64(-0.19907407407407407)],[1],[0],[0],[1.0701829998288304],[None],104,0,104,0,151.0308403999079,,10,151.02432269998826,151.0308403999079,151.0308403999079,0.01804780005477369,152.09460439998657,[np.float64(-0.000925925925925926)],[np.float64(-0.19907407407407407)],[1],[0],[0],[1.0701829998288304],[None],5,001,2025-09-30_15h59.34.260,Visual Search,,2025.1.1,60.09568430757593,2025-09-30 16h01.23.710853 +0530,
105,0,105,[np.float64(0.06944444444444445)],[np.float64(0.06851851851851852)],[1],[0],[0],[1.0304000000469387],['target'],105,0,105,0,152.11965169990435,,10,152.11254270002246,152.11965169990435,152.11965169990435,0.017740700161084533,153.14303689985536,[np.float64(0.06944444444444445)],[np.float64(0.06851851851851852)],[1],[0],[0],[1.0304000000469387],['target'],5,001,2025-09-30_15h59.34.260,Visual Search,,2025.1.1,60.09568430757593,2025-09-30 16h01.23.710853 +0530,
106,0,106,[np.float64(0.2462962962962963)],[np.float64(0.46296296296296297)],[1],[0],[0],[2.201437799958512],[None],106,0,106,0,153.1652088998817,,10,153.15861179982312,153.1652088998817,153.1652088998817,0.015391299966722727,155.3601311999373,[np.float64(0.2462962962962963)],[np.float64(0.46296296296296297)],[1],[0],[0],[2.201437799958512],[None],5,001,2025-09-30_15h59.34.260,Visual Search,,2025.1.1,60.09568430757593,2025-09-30 16h01.23.710853 +0530,
107,0,107,[np.float64(0.09814814814814815)],[np.float64(-0.049074074074074076)],[1],[0],[0],[1.1925007000099868],[None],107,0,107,0,155.37270289985463,,5,155.36827740003355,155.37270289985463,155.37270289985463,0.007977500092238188,156.56088020000607,[np.float64(0.09814814814814815)],[np.float64(-0.049074074074074076)],[1],[0],[0],[1.1925007000099868],[None],5,001,2025-09-30_15h59.34.260,Visual Search,,2025.1.1,60.09568430757593,2025-09-30 16h01.23.710853 +0530,
108,0,108,[np.float64(0.05092592592592592)],[np.float64(-0.12222222222222222)],[1],[0],[0],[1.5001525001134723],['target'],108,0,108,0,156.58203029981814,,10,156.57596990000457,156.58203029981814,156.58203029981814,0.014922400005161762,158.07622059993446,[np.float64(0.05092592592592592)],[np.float64(-0.12222222222222222)],[1],[0],[0],[1.5001525001134723],['target'],5,001,2025-09-30_15h59.34.260,Visual Search,,2025.1.1,60.09568430757593,2025-09-30 16h01.23.710853 +0530,
109,0,109,[np.float64(-0.29444444444444445)],[np.float64(-0.25462962962962965)],[1],[0],[0],[1.199940900085494],[None],109,0,109,0,158.09992969990708,,10,158.09349999995902,158.09992969990708,158.09992969990708,0.017074899980798364,159.2935285998974,[np.float64(-0.29444444444444445)],[np.float64(-0.25462962962962965)],[1],[0],[0],[1.199940900085494],[None],5,001,2025-09-30_15h59.34.260,Visual Search,,2025.1.1,60.09568430757593,2025-09-30 16h01.23.710853 +0530,
110,0,110,[np.float64(0.05185185185185185)],[np.float64(-0.26666666666666666)],[1],[0],[0],[1.3844079000409693],[None],110,0,110,0,159.31496729981154,,10,159.30867169983685,159.31496729981154,159.31496729981154,0.014963699970394373,160.693172799889,[np.float64(0.05185185185185185)],[np.float64(-0.26666666666666666)],[1],[0],[0],[1.3844079000409693],[None],5,001,2025-09-30_15h59.34.260,Visual Search,,2025.1.1,60.09568430757593,2025-09-30 16h01.23.710853 +0530,
111,0,111,[np.float64(-0.42592592592592593)],[np.float64(0.37037037037037035)],[1],[0],[0],[1.3690488000866026],['target'],111,0,111,0,160.7151391999796,,10,160.70885579986498,160.7151391999796,160.7151391999796,0.015481699956580997,162.07800199999474,[np.float64(-0.42592592592592593)],[np.float64(0.37037037037037035)],[1],[0],[0],[1.3690488000866026],['target'],5,001,2025-09-30_15h59.34.260,Visual Search,,2025.1.1,60.09568430757593,2025-09-30 16h01.23.710853 +0530,
112,0,112,[np.float64(0.4666666666666667)],[np.float64(-0.009259259259259259)],[1],[0],[0],[1.4341883000452071],[None],112,0,112,0,162.10032079997472,,10,162.09382479987107,162.10032079997472,162.10032079997472,0.015626100124791265,163.52811299986206,[np.float64(0.4666666666666667)],[np.float64(-0.009259259259259259)],[1],[0],[0],[1.4341883000452071],[None],5,001,2025-09-30_15h59.34.260,Visual Search,,2025.1.1,60.09568430757593,2025-09-30 16h01.23.710853 +0530,
113,0,113,[np.float64(-0.11388888888888889)],[np.float64(0.13425925925925927)],[1],[0],[0],[1.1156590001191944],['target'],113,0,113,0,163.54923309991136,,10,163.5430310999509,163.54923309991136,163.54923309991136,0.014723100000992417,164.6587717998773,[np.float64(-0.11388888888888889)],[np.float64(0.13425925925925927)],[1],[0],[0],[1.1156590001191944],['target'],5,001,2025-09-30_15h59.34.260,Visual Search,,2025.1.1,60.09568430757593,2025-09-30 16h01.23.710853 +0530,
114,0,114,[np.float64(0.15462962962962962)],[np.float64(-0.22685185185185186)],[1],[0],[0],[1.5271043998654932],[None],114,0,114,0,164.67116909986362,,5,164.66631169989705,164.67116909986362,164.67116909986362,0.007405000040307641,166.19352029985748,[np.float64(0.15462962962962962)],[np.float64(-0.22685185185185186)],[1],[0],[0],[1.5271043998654932],[None],5,001,2025-09-30_15h59.34.260,Visual Search,,2025.1.1,60.09568430757593,2025-09-30 16h01.23.710853 +0530,
115,0,115,[np.float64(-0.24444444444444444)],[np.float64(0.22685185185185186)],[1],[0],[0],[1.0860111000947654],['target'],115,0,115,0,166.2145872998517,,10,166.20855350000784,166.2145872998517,166.2145872998517,0.014858399983495474,167.29466689983383,[np.float64(-0.24444444444444444)],[np.float64(0.22685185185185186)],[1],[0],[0],[1.0860111000947654],['target'],5,001,2025-09-30_15h59.34.260,Visual Search,,2025.1.1,60.09568430757593,2025-09-30 16h01.23.710853 +0530,
116,0,116,[np.float64(0.24259259259259258)],[np.float64(-0.2851851851851852)],[1],[0],[0],[2.019484299933538],['target'],116,0,116,0,167.30884069995955,,5,167.3041681998875,167.30884069995955,167.30884069995955,0.009293099865317345,169.3237736998126,[np.float64(0.24259259259259258)],[np.float64(-0.2851851851851852)],[1],[0],[0],[2.019484299933538],['target'],5,001,2025-09-30_15h59.34.260,Visual Search,,2025.1.1,60.09568430757593,2025-09-30 16h01.23.710853 +0530,
117,0,117,[np.float64(0.025)],[np.float64(0.30462962962962964)],[1],[0],[0],[1.5710191999096423],['target'],117,0,117,0,169.3462719998788,,10,169.3395753998775,169.3462719998788,169.3462719998788,0.01559509988874197,170.91069599986076,[np.float64(0.025)],[np.float64(0.30462962962962964)],[1],[0],[0],[1.5710191999096423],['target'],5,001,2025-09-30_15h59.34.260,Visual Search,,2025.1.1,60.09568430757593,2025-09-30 16h01.23.710853 +0530,
118,0,118,[np.float64(0.2740740740740741)],[np.float64(-0.42314814814814816)],[1],[0],[0],[1.6477832000236958],['target'],118,0,118,0,170.9369840999134,,10,170.9299399999436,170.9369840999134,170.9369840999134,0.019054400036111474,172.5778183999937,[np.float64(0.2740740740740741)],[np.float64(-0.42314814814814816)],[1],[0],[0],[1.6477832000236958],['target'],5,001,2025-09-30_15h59.34.260,Visual Search,,2025.1.1,60.09568430757593,2025-09-30 16h01.23.710853 +0530,
119,0,119,[np.float64(-0.4185185185185185)],[np.float64(0.20925925925925926)],[1],[0],[0],[1.4723287001252174],['target'],119,0,119,0,172.5912550999783,,5,172.5867565998342,172.5912550999783,172.5912550999783,0.008729999884963036,174.05916299996898,[np.float64(-0.4185185185185185)],[np.float64(0.20925925925925926)],[1],[0],[0],[1.4723287001252174],['target'],5,001,2025-09-30_15h59.34.260,Visual Search,,2025.1.1,60.09568430757593,2025-09-30 16h01.23.710853 +0530,
120,0,120,[np.float64(-0.05555555555555555)],[np.float64(0.2898148148148148)],[1],[0],[0],[1.1104384998325258],['target'],120,0,120,0,174.07205999991857,,5,174.06727809994482,174.07205999991857,174.07205999991857,0.00798999983817339,175.17782250000164,[np.float64(-0.05555555555555555)],[np.float64(0.2898148148148148)],[1],[0],[0],[1.1104384998325258],['target'],5,001,2025-09-30_15h59.34.260,Visual Search,,2025.1.1,60.09568430757593,2025-09-30 16h01.23.710853 +0530,
121,0,121,[np.float64(0.17222222222222222)],[np.float64(-0.41203703703703703)],[1],[0],[0],[1.4971725000068545],['target'],121,0,121,0,175.19955879985355,,10,175.19256359990686,175.19955879985355,175.19955879985355,0.01458499999716878,176.68985829991288,[np.float64(0.17222222222222222)],[np.float64(-0.41203703703703703)],[1],[0],[0],[1.4971725000068545],['target'],5,001,2025-09-30_15h59.34.260,Visual Search,,2025.1.1,60.09568430757593,2025-09-30 16h01.23.710853 +0530,
122,0,122,[np.float64(0.44722222222222224)],[np.float64(-0.2564814814814815)],[1],[0],[0],[1.0211309001315385],['target'],122,0,122,0,176.71130349999294,,10,176.7051468999125,176.71130349999294,176.71130349999294,0.015063100028783083,177.72638949984685,[np.float64(0.44722222222222224)],[np.float64(-0.2564814814814815)],[1],[0],[0],[1.0211309001315385],['target'],5,001,2025-09-30_15h59.34.260,Visual Search,,2025.1.1,60.09568430757593,2025-09-30 16h01.23.710853 +0530,
123,0,123,[np.float64(0.4842592592592593)],[np.float64(0.2564814814814815)],[1],[0],[0],[1.2642951000016183],[None],123,0,123,0,177.74892889987677,,10,177.7416530000046,177.74892889987677,177.74892889987677,0.015040400205180049,179.00605929992162,[np.float64(0.4842592592592593)],[np.float64(0.2564814814814815)],[1],[0],[0],[1.2642951000016183],[None],5,001,2025-09-30_15h59.34.260,Visual Search,,2025.1.1,60.09568430757593,2025-09-30 16h01.23.710853 +0530,
124,0,124,[np.float64(0.2898148148148148)],[np.float64(-0.24166666666666667)],[1],[0],[0],[1.1909521999768913],['target'],124,0,124,0,179.02119220001623,,5,179.0165291999001,179.02119220001623,179.02119220001623,0.010244400007650256,180.20754199987277,[np.float64(0.2898148148148148)],[np.float64(-0.24166666666666667)],[1],[0],[0],[1.1909521999768913],['target'],5,001,2025-09-30_15h59.34.260,Visual Search,,2025.1.1,60.09568430757593,2025-09-30 16h01.23.710853 +0530,
125,0,125,[np.float64(0.39537037037037037)],[np.float64(-0.06574074074074074)],[1],[0],[0],[1.0282966999802738],[None],125,0,125,0,180.22144480003044,,5,180.21505309990607,180.22144480003044,180.22144480003044,0.007423900067806244,181.24346389994025,[np.float64(0.39537037037037037)],[np.float64(-0.06574074074074074)],[1],[0],[0],[1.0282966999802738],[None],5,001,2025-09-30_15h59.34.260,Visual Search,,2025.1.1,60.09568430757593,2025-09-30 16h01.23.710853 +0530,
126,0,126,[np.float64(-0.14814814814814814)],[np.float64(-0.3453703703703704)],[1],[0],[0],[1.0976577000692487],[None],126,0,126,0,181.26875099982135,,10,181.26194519991986,181.26875099982135,181.26875099982135,0.01829449995420873,182.35969639988616,[np.float64(-0.14814814814814814)],[np.float64(-0.3453703703703704)],[1],[0],[0],[1.0976577000692487],[None],5,001,2025-09-30_15h59.34.260,Visual Search,,2025.1.1,60.09568430757593,2025-09-30 16h01.23.710853 +0530,
127,0,127,[np.float64(-0.18055555555555555)],[np.float64(-0.38333333333333336)],[1],[0],[0],[1.4417844999115914],['target'],127,0,127,0,182.37286899983883,,5,182.36830480000935,182.37286899983883,182.37286899983883,0.008433300070464611,183.8101848999504,[np.float64(-0.18055555555555555)],[np.float64(-0.38333333333333336)],[1],[0],[0],[1.4417844999115914],['target'],5,001,2025-09-30_15h59.34.260,Visual Search,,2025.1.1,60.09568430757593,2025-09-30 16h01.23.710853 +0530,
128,0,128,[np.float64(-0.29444444444444445)],[np.float64(0.006481481481481481)],[1],[0],[0],[1.1519675999879837],['target'],128,0,128,0,183.82528360001743,,5,183.82088549993932,183.82528360001743,183.82528360001743,0.010546299861744046,184.97303529991768,[np.float64(-0.29444444444444445)],[np.float64(0.006481481481481481)],[1],[0],[0],[1.1519675999879837],['target'],5,001,2025-09-30_15h59.34.260,Visual Search,,2025.1.1,60.09568430757593,2025-09-30 16h01.23.710853 +0530,
129,0,129,[np.float64(-0.2935185185185185)],[np.float64(-0.11018518518518519)],[1],[0],[0],[1.1401398999150842],['target'],129,0,129,0,184.9899028998334,,5,184.98529349989258,184.9899028998334,184.9899028998334,0.01199789997190237,186.1255083999131,[np.float64(-0.2935185185185185)],[np.float64(-0.11018518518518519)],[1],[0],[0],[1.1401398999150842],['target'],5,001,2025-09-30_15h59.34.260,Visual Search,,2025.1.1,60.09568430757593,2025-09-30 16h01.23.710853 +0530,
130,0,130,[np.float64(-0.07962962962962963)],[np.float64(-0.24537037037037038)],[1],[0],[0],[1.2538690001238137],['target'],130,0,130,0,186.1475963999983,,10,186.14141259994358,186.1475963999983,186.1475963999983,0.015773399965837598,187.39553769980557,[np.float64(-0.07962962962962963)],[np.float64(-0.24537037037037038)],[1],[0],[0],[1.2538690001238137],['target'],5,001,2025-09-30_15h59.34.260,Visual Search,,2025.1.1,60.09568430757593,2025-09-30 16h01.23.710853 +0530,
131,0,131,[np.float64(0.16111111111111112)],[np.float64(-0.4148148148148148)],[1],[0],[0],[1.4527952000498772],['target'],131,0,131,0,187.41167499986477,,5,187.4068936998956,187.41167499986477,187.41167499986477,0.011151500046253204,188.85979150002822,[np.float64(0.16111111111111112)],[np.float64(-0.4148148148148148)],[1],[0],[0],[1.4527952000498772],['target'],5,001,2025-09-30_15h59.34.260,Visual Search,,2025.1.1,60.09568430757593,2025-09-30 16h01.23.710853 +0530,
132,0,132,[np.float64(-0.34629629629629627)],[np.float64(0.1638888888888889)],[1],[0],[0],[1.2515338999219239],['target'],132,0,132,0,188.88077589985915,,10,188.87446039984934,188.88077589985915,188.88077589985915,0.014509900007396936,190.12609189981595,[np.float64(-0.34629629629629627)],[np.float64(0.1638888888888889)],[1],[0],[0],[1.2515338999219239],['target'],5,001,2025-09-30_15h59.34.260,Visual Search,,2025.1.1,60.09568430757593,2025-09-30 16h01.23.710853 +0530,
133,0,133,[np.float64(-0.2064814814814815)],[np.float64(0.29814814814814816)],[1],[0],[0],[1.093034999910742],['target'],133,0,133,0,190.13968100002967,,5,190.13398859999143,190.13968100002967,190.13968100002967,0.007738200016319752,191.22711359988898,[np.float64(-0.2064814814814815)],[np.float64(0.29814814814814816)],[1],[0],[0],[1.093034999910742],['target'],5,001,2025-09-30_15h59.34.260,Visual Search,,2025.1.1,60.09568430757593,2025-09-30 16h01.23.710853 +0530,
134,0,134,[np.float64(0.36666666666666664)],[np.float64(0.46111111111111114)],[1],[0],[0],[1.6685435001272708],[None],134,0,134,0,191.2494208998978,,10,191.24265919998288,191.2494208998978,191.2494208998978,0.015399100026115775,192.91132269985974,[np.float64(0.36666666666666664)],[np.float64(0.46111111111111114)],[1],[0],[0],[1.6685435001272708],[None],5,001,2025-09-30_15h59.34.260,Visual Search,,2025.1.1,60.09568430757593,2025-09-30 16h01.23.710853 +0530,
135,0,135,[np.float64(0.08148148148148149)],[np.float64(0.32037037037037036)],[1],[0],[0],[1.0573344000149518],['target'],135,0,135,0,192.92582020000555,,5,192.92120889993384,192.92582020000555,192.92582020000555,0.009646499995142221,193.97865469986573,[np.float64(0.08148148148148149)],[np.float64(0.32037037037037036)],[1],[0],[0],[1.0573344000149518],['target'],5,001,2025-09-30_15h59.34.260,Visual Search,,2025.1.1,60.09568430757593,2025-09-30 16h01.23.710853 +0530,
136,0,136,[np.float64(-0.1787037037037037)],[np.float64(0.11203703703703703)],[1],[0],[0],[1.0047887999098748],['target'],136,0,136,0,193.99367999983951,,5,193.98807389987633,193.99367999983951,193.99367999983951,0.009259400190785527,194.99295659991913,[np.float64(-0.1787037037037037)],[np.float64(0.11203703703703703)],[1],[0],[0],[1.0047887999098748],['target'],5,001,2025-09-30_15h59.34.260,Visual Search,,2025.1.1,60.09568430757593,2025-09-30 16h01.23.710853 +0530,
137,0,137,[np.float64(0.40555555555555556)],[np.float64(0.05925925925925926)],[1],[0],[0],[1.0361206999514252],['target'],137,0,137,0,195.01473089982755,,10,195.00864679994993,195.01473089982755,195.01473089982755,0.01551369996741414,196.04487250000238,[np.float64(0.40555555555555556)],[np.float64(0.05925925925925926)],[1],[0],[0],[1.0361206999514252],['target'],5,001,2025-09-30_15h59.34.260,Visual Search,,2025.1.1,60.09568430757593,2025-09-30 16h01.23.710853 +0530,
138,0,138,[np.float64(0.3037037037037037)],[np.float64(-0.012037037037037037)],[1],[0],[0],[1.2007908998057246],['target'],138,0,138,0,196.06689989985898,,10,196.05979410000145,196.06689989985898,196.06689989985898,0.014709800016134977,197.26067249989137,[np.float64(0.3037037037037037)],[np.float64(-0.012037037037037037)],[1],[0],[0],[1.2007908998057246],['target'],5,001,2025-09-30_15h59.34.260,Visual Search,,2025.1.1,60.09568430757593,2025-09-30 16h01.23.710853 +0530,
139,0,139,[np.float64(-0.38796296296296295)],[np.float64(-0.04722222222222222)],[1],[0],[0],[1.2537094000726938],[None],139,0,139,0,197.27388079999946,,5,197.26929560001008,197.27388079999946,197.27388079999946,0.00835210015065968,198.52314909989946,[np.float64(-0.38796296296296295)],[np.float64(-0.04722222222222222)],[1],[0],[0],[1.2537094000726938],[None],5,001,2025-09-30_15h59.34.260,Visual Search,,2025.1.1,60.09568430757593,2025-09-30 16h01.23.710853 +0530,
140,0,140,[np.float64(-0.44166666666666665)],[np.float64(-0.05462962962962963)],[1],[0],[0],[0.9159186000470072],['target'],140,0,140,0,198.54677739995532,,10,198.54002769989893,198.54677739995532,198.54677739995532,0.0166015001013875,199.45606509991921,[np.float64(-0.44166666666666665)],[np.float64(-0.05462962962962963)],[1],[0],[0],[0.9159186000470072],['target'],5,001,2025-09-30_15h59.34.260,Visual Search,,2025.1.1,60.09568430757593,2025-09-30 16h01.23.710853 +0530,
141,0,141,[np.float64(-0.48703703703703705)],[np.float64(0.001851851851851852)],[1],[0],[0],[3.198365200078115],['target'],141,0,141,0,199.48020550003275,,10,199.4738154998049,199.48020550003275,199.48020550003275,0.017504200106486678,202.6723062999081,[np.float64(-0.48703703703703705)],[np.float64(0.001851851851851852)],[1],[0],[0],[3.198365200078115],['target'],5,001,2025-09-30_15h59.34.260,Visual Search,,2025.1.1,60.09568430757593,2025-09-30 16h01.23.710853 +0530,
142,0,142,[np.float64(-0.16111111111111112)],[np.float64(0.21851851851851853)],[1],[0],[0],[1.192789199994877],['target'],142,0,142,0,202.68773709982634,,5,202.6826877000276,202.68773709982634,202.68773709982634,0.010164600098505616,203.87558899982832,[np.float64(-0.16111111111111112)],[np.float64(0.21851851851851853)],[1],[0],[0],[1.192789199994877],['target'],5,001,2025-09-30_15h59.34.260,Visual Search,,2025.1.1,60.09568430757593,2025-09-30 16h01.23.710853 +0530,
143,0,143,[np.float64(-0.05555555555555555)],[np.float64(0.47129629629629627)],[1],[0],[0],[1.1849742999766022],['target'],143,0,143,0,203.8978573998902,,10,203.89125470002182,203.8978573998902,203.8978573998902,0.0154920001514256,205.07632729993202,[np.float64(-0.05555555555555555)],[np.float64(0.47129629629629627)],[1],[0],[0],[1.1849742999766022],['target'],5,001,2025-09-30_15h59.34.260,Visual Search,,2025.1.1,60.09568430757593,2025-09-30 16h01.23.710853 +0530,
144,0,144,[np.float64(-0.10740740740740741)],[np.float64(0.0962962962962963)],[1],[0],[0],[1.1901593001093715],['target'],144,0,144,0,205.0912421999965,,5,205.0857966998592,205.0912421999965,205.0912421999965,0.009390399791300297,206.27604869985953,[np.float64(-0.10740740740740741)],[np.float64(0.0962962962962963)],[1],[0],[0],[1.1901593001093715],['target'],5,001,2025-09-30_15h59.34.260,Visual Search,,2025.1.1,60.09568430757593,2025-09-30 16h01.23.710853 +0530,
145,0,145,[np.float64(0.2564814814814815)],[np.float64(-0.046296296296296294)],[1],[0],[0],[1.291012299945578],[None],145,0,145,0,206.28867979999632,,5,206.28442859998904,206.28867979999632,206.28867979999632,0.008231100160628557,207.57555489987135,[np.float64(0.2564814814814815)],[np.float64(-0.046296296296296294)],[1],[0],[0],[1.291012299945578],[None],5,001,2025-09-30_15h59.34.260,Visual Search,,2025.1.1,60.09568430757593,2025-09-30 16h01.23.710853 +0530,
146,0,146,[np.float64(0.26666666666666666)],[np.float64(-0.19722222222222222)],[1],[0],[0],[1.0073905000463128],['target'],146,0,146,0,207.59044409985654,,5,207.58596970001236,207.59044409985654,207.59044409985654,0.010222500190138817,208.59345179982483,[np.float64(0.26666666666666666)],[np.float64(-0.19722222222222222)],[1],[0],[0],[1.0073905000463128],['target'],5,001,2025-09-30_15h59.34.260,Visual Search,,2025.1.1,60.09568430757593,2025-09-30 16h01.23.710853 +0530,
147,0,147,[np.float64(-0.000925925925925926)],[np.float64(-0.053703703703703705)],[1],[0],[0],[1.1337264999747276],[None],147,0,147,0,208.61464139982127,,10,208.6085928999819,208.61464139982127,208.61464139982127,0.01497030002065003,209.74243270000443,[np.float64(-0.000925925925925926)],[np.float64(-0.053703703703703705)],[1],[0],[0],[1.1337264999747276],[None],5,001,2025-09-30_15h59.34.260,Visual Search,,2025.1.1,60.09568430757593,2025-09-30 16h01.23.710853 +0530,
148,0,148,[np.float64(0.46296296296296297)],[np.float64(-0.4101851851851852)],[1],[0],[0],[1.5385223999619484],['target'],148,0,148,0,209.75825029984117,,5,209.7540303999558,209.75825029984117,209.75825029984117,0.011372899869456887,211.2926550998818,[np.float64(0.46296296296296297)],[np.float64(-0.4101851851851852)],[1],[0],[0],[1.5385223999619484],['target'],5,001,2025-09-30_15h59.34.260,Visual Search,,2025.1.1,60.09568430757593,2025-09-30 16h01.23.710853 +0530,
149,0,149,[np.float64(0.36018518518518516)],[np.float64(-0.17962962962962964)],[1],[0],[0],[1.0198443999979645],['target'],149,0,149,0,211.3074345998466,,5,211.30318019981496,211.3074345998466,211.3074345998466,0.010352099779993296,212.32316649984568,[np.float64(0.36018518518518516)],[np.float64(-0.17962962962962964)],[1],[0],[0],[1.0198443999979645],['target'],5,001,2025-09-30_15h59.34.260,Visual Search,,2025.1.1,60.09568430757593,2025-09-30 16h01.23.710853 +0530,
150,0,150,[np.float64(0.22407407407407406)],[np.float64(-0.29259259259259257)],[1],[0],[0],[1.0830416001845151],[None],150,0,150,0,212.34866070002317,,10,212.3423609000165,212.34866070002317,212.34866070002317,0.018946600146591663,213.4254887998104,[np.float64(0.22407407407407406)],[np.float64(-0.29259259259259257)],[1],[0],[0],[1.0830416001845151],[None],5,001,2025-09-30_15h59.34.260,Visual Search,,2025.1.1,60.09568430757593,2025-09-30 16h01.23.710853 +0530,
151,0,151,[np.float64(-0.08796296296296297)],[np.float64(-0.27870370370370373)],[1],[0],[0],[0.9396019000560045],['target'],151,0,151,0,213.43824369995855,,5,213.43401620001532,213.43824369995855,213.43824369995855,0.008356800070032477,214.37376929982565,[np.float64(-0.08796296296296297)],[np.float64(-0.27870370370370373)],[1],[0],[0],[0.9396019000560045],['target'],5,001,2025-09-30_15h59.34.260,Visual Search,,2025.1.1,60.09568430757593,2025-09-30 16h01.23.710853 +0530,
152,0,152,[np.float64(0.4324074074074074)],[np.float64(0.4638888888888889)],[1],[0],[0],[1.515958399977535],['target'],152,0,152,0,214.39649589988403,,10,214.3900037999265,214.39649589988403,214.39649589988403,0.015971799846738577,215.90610009990633,[np.float64(0.4324074074074074)],[np.float64(0.4638888888888889)],[1],[0],[0],[1.515958399977535],['target'],5,001,2025-09-30_15h59.34.260,Visual Search,,2025.1.1,60.09568430757593,2025-09-30 16h01.23.710853 +0530,
153,0,153,[np.float64(0.23796296296296296)],[np.float64(0.42314814814814816)],[1],[0],[0],[1.2106574999634176],['target'],153,0,153,0,215.92193309986033,,5,215.91738029988483,215.92193309986033,215.92193309986033,0.010989299975335598,217.12814509985037,[np.float64(0.23796296296296296)],[np.float64(0.42314814814814816)],[1],[0],[0],[1.2106574999634176],['target'],5,001,2025-09-30_15h59.34.260,Visual Search,,2025.1.1,60.09568430757593,2025-09-30 16h01.23.710853 +0530,
154,0,154,[np.float64(0.262037037037037)],[np.float64(0.462037037037037)],[1],[0],[0],[1.1363154000137001],['target'],154,0,154,0,217.14267389988527,,5,217.13819389999844,217.14267389988527,217.14267389988527,0.00987479998730123,218.27459109993652,[np.float64(0.262037037037037)],[np.float64(0.462037037037037)],[1],[0],[0],[1.1363154000137001],['target'],5,001,2025-09-30_15h59.34.260,Visual Search,,2025.1.1,60.09568430757593,2025-09-30 16h01.23.710853 +0530,
155,0,155,[np.float64(0.3111111111111111)],[np.float64(0.03611111111111111)],[1],[0],[0],[1.1369046000763774],['target'],155,0,155,0,218.29481999995187,,10,218.2885105998721,218.29481999995187,218.29481999995187,0.013783999951556325,219.42550689983182,[np.float64(0.3111111111111111)],[np.float64(0.03611111111111111)],[1],[0],[0],[1.1369046000763774],['target'],5,001,2025-09-30_15h59.34.260,Visual Search,,2025.1.1,60.09568430757593,2025-09-30 16h01.23.710853 +0530,
156,0,156,[np.float64(0.13518518518518519)],[np.float64(0.06666666666666667)],[1],[0],[0],[1.0656852999236435],['target'],156,0,156,0,219.44603009987622,,10,219.43981979996897,219.44603009987622,219.44603009987622,0.014129700139164925,220.50559349986725,[np.float64(0.13518518518518519)],[np.float64(0.06666666666666667)],[1],[0],[0],[1.0656852999236435],['target'],5,001,2025-09-30_15h59.34.260,Visual Search,,2025.1.1,60.09568430757593,2025-09-30 16h01.23.710853 +0530,
157,0,157,[np.float64(0.12222222222222222)],[np.float64(-0.3287037037037037)],[1],[0],[0],[1.1078212999273092],['target'],157,0,157,0,220.5209570999723,,5,220.51407459983602,220.5209570999723,220.5209570999723,0.008304700022563338,221.62197809992358,[np.float64(0.12222222222222222)],[np.float64(-0.3287037037037037)],[1],[0],[0],[1.1078212999273092],['target'],5,001,2025-09-30_15h59.34.260,Visual Search,,2025.1.1,60.09568430757593,2025-09-30 16h01.23.710853 +0530,
158,0,158,[np.float64(-0.15555555555555556)],[np.float64(-0.022222222222222223)],[1],[0],[0],[1.026700499933213],['target'],158,0,158,0,221.63748389994726,,5,221.6324095998425,221.63748389994726,221.63748389994726,0.010277500143274665,222.6592061999254,[np.float64(-0.15555555555555556)],[np.float64(-0.022222222222222223)],[1],[0],[0],[1.026700499933213],['target'],5,001,2025-09-30_15h59.34.260,Visual Search,,2025.1.1,60.09568430757593,2025-09-30 16h01.23.710853 +0530,
159,0,159,[np.float64(0.22777777777777777)],[np.float64(-0.1259259259259259)],[1],[0],[0],[1.1113527999259531],[None],159,0,159,0,222.68656679987907,,5,222.681598899886,222.68656679987907,222.68656679987907,0.022260199999436736,223.79304599994794,[np.float64(0.22777777777777777)],[np.float64(-0.1259259259259259)],[1],[0],[0],[1.1113527999259531],[None],5,001,2025-09-30_15h59.34.260,Visual Search,,2025.1.1,60.09568430757593,2025-09-30 16h01.23.710853 +0530,
160,0,160,[np.float64(0.23703703703703705)],[np.float64(0.02962962962962963)],[1],[0],[0],[0.9034314001910388],[None],160,0,160,0,223.80598780000582,,5,223.80161439999938,223.80598780000582,223.80598780000582,0.008390800096094608,224.70516110002063,[np.float64(0.23703703703703705)],[np.float64(0.02962962962962963)],[1],[0],[0],[0.9034314001910388],[None],5,001,2025-09-30_15h59.34.260,Visual Search,,2025.1.1,60.09568430757593,2025-09-30 16h01.23.710853 +0530,
161,0,161,[np.float64(-0.1111111111111111)],[np.float64(-0.3509259259259259)],[1],[0],[0],[1.0363282000180334],[None],161,0,161,0,224.72921000001952,,10,224.72301279986277,224.72921000001952,224.72921000001952,0.01766359992325306,225.75943169998936,[np.float64(-0.1111111111111111)],[np.float64(-0.3509259259259259)],[1],[0],[0],[1.0363282000180334],[None],5,001,2025-09-30_15h59.34.260,Visual Search,,2025.1.1,60.09568430757593,2025-09-30 16h01.23.710853 +0530,
162,0,162,[np.float64(0.3509259259259259)],[np.float64(-0.4722222222222222)],[1],[0],[0],[1.3762884000316262],['target'],162,0,162,0,225.77252250001766,,5,225.76787029998377,225.77252250001766,225.77252250001766,0.008249499835073948,227.14427990000695,[np.float64(0.3509259259259259)],[np.float64(-0.4722222222222222)],[1],[0],[0],[1.3762884000316262],['target'],5,001,2025-09-30_15h59.34.260,Visual Search,,2025.1.1,60.09568430757593,2025-09-30 16h01.23.710853 +0530,
163,0,163,[np.float64(0.4009259259259259)],[np.float64(0.07962962962962963)],[1],[0],[0],[1.2829030000139028],[None],163,0,163,0,227.16533200000413,,10,227.15960839996114,227.16533200000413,227.16533200000413,0.015124900033697486,228.44260760000907,[np.float64(0.4009259259259259)],[np.float64(0.07962962962962963)],[1],[0],[0],[1.2829030000139028],[None],5,001,2025-09-30_15h59.34.260,Visual Search,,2025.1.1,60.09568430757593,2025-09-30 16h01.23.710853 +0530,
164,0,164,[np.float64(0.39166666666666666)],[np.float64(0.07962962962962963)],[1],[0],[0],[0.8898826001677662],['target'],164,0,164,0,228.45774099999107,,5,228.4536496999208,228.45774099999107,228.45774099999107,0.01084720017388463,229.34363229991868,[np.float64(0.39166666666666666)],[np.float64(0.07962962962962963)],[1],[0],[0],[0.8898826001677662],['target'],5,001,2025-09-30_15h59.34.260,Visual Search,,2025.1.1,60.09568430757593,2025-09-30 16h01.23.710853 +0530,
165,0,165,[np.float64(-0.09259259259259259)],[np.float64(0.13148148148148148)],[1],[0],[0],[1.2529621000867337],['target'],165,0,165,0,229.3641116998624,,10,229.3580293999985,229.3641116998624,229.3641116998624,0.014240299817174673,230.61124819982797,[np.float64(-0.09259259259259259)],[np.float64(0.13148148148148148)],[1],[0],[0],[1.2529621000867337],['target'],5,001,2025-09-30_15h59.34.260,Visual Search,,2025.1.1,60.09568430757593,2025-09-30 16h01.23.710853 +0530,
166,0,166,[np.float64(-0.03888888888888889)],[np.float64(0.3111111111111111)],[1],[0],[0],[1.1499681998975575],['target'],166,0,166,0,230.63225729996338,,10,230.6259059999138,230.63225729996338,230.63225729996338,0.0144187998957932,231.7760403000284,[np.float64(-0.03888888888888889)],[np.float64(0.3111111111111111)],[1],[0],[0],[1.1499681998975575],['target'],5,001,2025-09-30_15h59.34.260,Visual Search,,2025.1.1,60.09568430757593,2025-09-30 16h01.23.710853 +0530,
167,0,167,[np.float64(-0.3138888888888889)],[np.float64(-0.4638888888888889)],[1],[0],[0],[1.3897112999111414],[None],167,0,167,0,231.79103379999287,,5,231.7865031999536,231.79103379999287,231.79103379999287,0.01027530012652278,233.17630649986677,[np.float64(-0.3138888888888889)],[np.float64(-0.4638888888888889)],[1],[0],[0],[1.3897112999111414],[None],5,001,2025-09-30_15h59.34.260,Visual Search,,2025.1.1,60.09568430757593,2025-09-30 16h01.23.710853 +0530,
168,0,168,[np.float64(-0.27037037037037037)],[np.float64(0.12222222222222222)],[1],[0],[0],[0.9343491999898106],[None],168,0,168,0,233.19928919989616,,10,233.19251059996895,233.19928919989616,233.19928919989616,0.01604839996434748,234.12705389992334,[np.float64(-0.27037037037037037)],[np.float64(0.12222222222222222)],[1],[0],[0],[0.9343491999898106],[None],5,001,2025-09-30_15h59.34.260,Visual Search,,2025.1.1,60.09568430757593,2025-09-30 16h01.23.710853 +0530,
169,0,169,[np.float64(0.3592592592592593)],[np.float64(0.2916666666666667)],[1],[0],[0],[1.1235966000240296],['target'],169,0,169,0,234.14152179984376,,5,234.13705799984746,234.14152179984376,234.14152179984376,0.009803300024941564,235.26076309988275,[np.float64(0.3592592592592593)],[np.float64(0.2916666666666667)],[1],[0],[0],[1.1235966000240296],['target'],5,001,2025-09-30_15h59.34.260,Visual Search,,2025.1.1,60.09568430757593,2025-09-30 16h01.23.710853 +0530,
170,0,170,[np.float64(-0.003703703703703704)],[np.float64(-0.4064814814814815)],[1],[0],[0],[1.2636357001028955],['target'],170,0,170,0,235.2827451999765,,10,235.27666369988583,235.2827451999765,235.2827451999765,0.0157298999838531,236.5403718999587,[np.float64(-0.003703703703703704)],[np.float64(-0.4064814814814815)],[1],[0],[0],[1.2636357001028955],['target'],5,001,2025-09-30_15h59.34.260,Visual Search,,2025.1.1,60.09568430757593,2025-09-30 16h01.23.710853 +0530,
171,0,171,[np.float64(0.011111111111111112)],[np.float64(0.3611111111111111)],[1],[0],[0],[1.2037768999580294],['target'],171,0,171,0,236.56045260000974,,10,236.55404970003292,236.56045260000974,236.56045260000974,0.013535000151023269,237.75790339987725,[np.float64(0.011111111111111112)],[np.float64(0.3611111111111111)],[1],[0],[0],[1.2037768999580294],['target'],5,001,2025-09-30_15h59.34.260,Visual Search,,2025.1.1,60.09568430757593,2025-09-30 16h01.23.710853 +0530,
172,0,172,[np.float64(0.37962962962962965)],[np.float64(-0.005555555555555556)],[1],[0],[0],[1.3098627000581473],['target'],172,0,172,0,237.77074369997717,,5,237.76569799985737,237.77074369997717,237.77074369997717,0.007650299929082394,239.07566869980656,[np.float64(0.37962962962962965)],[np.float64(-0.005555555555555556)],[1],[0],[0],[1.3098627000581473],['target'],5,001,2025-09-30_15h59.34.260,Visual Search,,2025.1.1,60.09568430757593,2025-09-30 16h01.23.710853 +0530,
173,0,173,[np.float64(0.10555555555555556)],[np.float64(0.12777777777777777)],[1],[0],[0],[1.0847805999219418],['target'],173,0,173,0,239.09762859996408,,10,239.09157909988426,239.09762859996408,239.09762859996408,0.015738600166514516,240.1764522998128,[np.float64(0.10555555555555556)],[np.float64(0.12777777777777777)],[1],[0],[0],[1.0847805999219418],['target'],5,001,2025-09-30_15h59.34.260,Visual Search,,2025.1.1,60.09568430757593,2025-09-30 16h01.23.710853 +0530,
174,0,174,[np.float64(0.49166666666666664)],[np.float64(0.26481481481481484)],[1],[0],[0],[1.3683188001159579],['target'],174,0,174,0,240.1979498998262,,10,240.19175679981709,240.1979498998262,240.1979498998262,0.01512239989824593,241.56019330001436,[np.float64(0.49166666666666664)],[np.float64(0.26481481481481484)],[1],[0],[0],[1.3683188001159579],['target'],5,001,2025-09-30_15h59.34.260,Visual Search,,2025.1.1,60.09568430757593,2025-09-30 16h01.23.710853 +0530,
175,0,175,[np.float64(0.006481481481481481)],[np.float64(-0.1685185185185185)],[1],[0],[0],[1.913010099902749],['target'],175,0,175,0,241.58191159996204,,10,241.57592239999212,241.58191159996204,241.58191159996204,0.01552890008315444,243.4890438998118,[np.float64(0.006481481481481481)],[np.float64(-0.1685185185185185)],[1],[0],[0],[1.913010099902749],['target'],5,001,2025-09-30_15h59.34.260,Visual Search,,2025.1.1,60.09568430757593,2025-09-30 16h01.23.710853 +0530,
176,0,176,[np.float64(-0.33611111111111114)],[np.float64(-0.375)],[1],[0],[0],[1.8222531999927014],['target'],176,0,176,0,243.51043140003458,,10,243.50404839986004,243.51043140003458,243.51043140003458,0.014780200086534023,245.32641369989142,[np.float64(-0.33611111111111114)],[np.float64(-0.375)],[1],[0],[0],[1.8222531999927014],['target'],5,001,2025-09-30_15h59.34.260,Visual Search,,2025.1.1,60.09568430757593,2025-09-30 16h01.23.710853 +0530,
177,0,177,[np.float64(-0.4722222222222222)],[np.float64(0.15462962962962962)],[1],[0],[0],[1.173305300064385],[None],177,0,177,0,245.33989849989302,,5,245.3356788000092,245.33989849989302,245.33989849989302,0.009011799935251474,246.50909979990683,[np.float64(-0.4722222222222222)],[np.float64(0.15462962962962962)],[1],[0],[0],[1.173305300064385],[None],5,001,2025-09-30_15h59.34.260,Visual Search,,2025.1.1,60.09568430757593,2025-09-30 16h01.23.710853 +0530,
178,0,178,[np.float64(-0.09814814814814815)],[np.float64(0.45925925925925926)],[1],[0],[0],[1.4562210999429226],['target'],178,0,178,0,246.5234575998038,,5,246.51924019982107,246.5234575998038,246.5234575998038,0.009970499901100993,247.97555399988778,[np.float64(-0.09814814814814815)],[np.float64(0.45925925925925926)],[1],[0],[0],[1.4562210999429226],['target'],5,001,2025-09-30_15h59.34.260,Visual Search,,2025.1.1,60.09568430757593,2025-09-30 16h01.23.710853 +0530,
179,0,179,[np.float64(-0.38796296296296295)],[np.float64(-0.3490740740740741)],[1],[0],[0],[1.2818469000048935],['target'],179,0,179,0,247.9974328998942,,10,247.99065769999288,247.9974328998942,247.9974328998942,0.014944599941372871,249.27261290000752,[np.float64(-0.38796296296296295)],[np.float64(-0.3490740740740741)],[1],[0],[0],[1.2818469000048935],['target'],5,001,2025-09-30_15h59.34.260,Visual Search,,2025.1.1,60.09568430757593,2025-09-30 16h01.23.710853 +0530,
180,0,180,[np.float64(-0.3175925925925926)],[np.float64(-0.10092592592592593)],[1],[0],[0],[0.894180600065738],['target'],180,0,180,0,249.28709779982455,,5,249.28209869982675,249.28709779982455,249.28709779982455,0.009264199994504452,250.1766180000268,[np.float64(-0.3175925925925926)],[np.float64(-0.10092592592592593)],[1],[0],[0],[0.894180600065738],['target'],5,001,2025-09-30_15h59.34.260,Visual Search,,2025.1.1,60.09568430757593,2025-09-30 16h01.23.710853 +0530,
181,0,181,[np.float64(-0.29444444444444445)],[np.float64(-0.1675925925925926)],[1],[0],[0],[0.9214502999093384],[None],181,0,181,0,250.19256199989468,,5,250.18807959998958,250.19256199989468,250.19256199989468,0.011246300069615245,251.10974179999903,[np.float64(-0.29444444444444445)],[np.float64(-0.1675925925925926)],[1],[0],[0],[0.9214502999093384],[None],5,001,2025-09-30_15h59.34.260,Visual Search,,2025.1.1,60.09568430757593,2025-09-30 16h01.23.710853 +0530,
182,0,182,[np.float64(0.4777777777777778)],[np.float64(-0.004629629629629629)],[1],[0],[0],[1.2963275001384318],[None],182,0,182,0,251.13182060001418,,10,251.12601569993421,251.13182060001418,251.13182060001418,0.016054999781772494,252.42253769980744,[np.float64(0.4777777777777778)],[np.float64(-0.004629629629629629)],[1],[0],[0],[1.2963275001384318],[None],5,001,2025-09-30_15h59.34.260,Visual Search,,2025.1.1,60.09568430757593,2025-09-30 16h01.23.710853 +0530,
183,0,183,[np.float64(0.09444444444444444)],[np.float64(-0.3472222222222222)],[1],[0],[0],[1.1883735000155866],['target'],183,0,183,0,252.44054229999892,,5,252.43599809985608,252.44054229999892,252.44054229999892,0.013099899981170893,253.6244638999924,[np.float64(0.09444444444444444)],[np.float64(-0.3472222222222222)],[1],[0],[0],[1.1883735000155866],['target'],5,001,2025-09-30_15h59.34.260,Visual Search,,2025.1.1,60.09568430757593,2025-09-30 16h01.23.710853 +0530,
184,0,184,[np.float64(0.18703703703703703)],[np.float64(0.1712962962962963)],[1],[0],[0],[1.1533359999302775],['target'],184,0,184,0,253.639840999851,,5,253.63522129994817,253.639840999851,253.639840999851,0.010609099874272943,254.78865949995816,[np.float64(0.18703703703703703)],[np.float64(0.1712962962962963)],[1],[0],[0],[1.1533359999302775],['target'],5,001,2025-09-30_15h59.34.260,Visual Search,,2025.1.1,60.09568430757593,2025-09-30 16h01.23.710853 +0530,
185,0,185,[np.float64(0.3138888888888889)],[np.float64(-0.28055555555555556)],[1],[0],[0],[1.0750291000586003],['target'],185,0,185,0,254.80431399983354,,5,254.80019949981943,254.80431399983354,254.80431399983354,0.011361699784174562,255.87531839986332,[np.float64(0.3138888888888889)],[np.float64(-0.28055555555555556)],[1],[0],[0],[1.0750291000586003],['target'],5,001,2025-09-30_15h59.34.260,Visual Search,,2025.1.1,60.09568430757593,2025-09-30 16h01.23.710853 +0530,
186,0,186,[np.float64(0.053703703703703705)],[np.float64(0.4074074074074074)],[1],[0],[0],[1.1526565998792648],['target'],186,0,186,0,255.8961165000219,,10,255.8901496999897,255.8961165000219,255.8961165000219,0.014684600057080388,257.0429107998498,[np.float64(0.053703703703703705)],[np.float64(0.4074074074074074)],[1],[0],[0],[1.1526565998792648],['target'],5,001,2025-09-30_15h59.34.260,Visual Search,,2025.1.1,60.09568430757593,2025-09-30 16h01.23.710853 +0530,
187,0,187,[np.float64(-0.08518518518518518)],[np.float64(-0.42685185185185187)],[1],[0],[0],[1.2908673000056297],['target'],187,0,187,0,257.05629889992997,,5,257.05189459980465,257.05629889992997,257.05629889992997,0.00878600007854402,258.34285409981385,[np.float64(-0.08518518518518518)],[np.float64(-0.42685185185185187)],[1],[0],[0],[1.2908673000056297],['target'],5,001,2025-09-30_15h59.34.260,Visual Search,,2025.1.1,60.09568430757593,2025-09-30 16h01.23.710853 +0530,
188,0,188,[np.float64(0.5157407407407407)],[np.float64(-0.20185185185185187)],[1],[0],[0],[1.1361064999364316],[None],188,0,188,0,258.35772760002874,,5,258.3535478999838,258.35772760002874,258.35772760002874,0.010551100131124258,259.48971879994497,[np.float64(0.5157407407407407)],[np.float64(-0.20185185185185187)],[1],[0],[0],[1.1361064999364316],[None],5,001,2025-09-30_15h59.34.260,Visual Search,,2025.1.1,60.09568430757593,2025-09-30 16h01.23.710853 +0530,
189,0,189,[np.float64(0.046296296296296294)],[np.float64(0.28888888888888886)],[1],[0],[0],[1.086016200017184],['target'],189,0,189,0,259.509188399883,,10,259.5032039999496,259.509188399883,259.509188399883,0.013378100004047155,260.58934059995227,[np.float64(0.046296296296296294)],[np.float64(0.28888888888888886)],[1],[0],[0],[1.086016200017184],['target'],5,001,2025-09-30_15h59.34.260,Visual Search,,2025.1.1,60.09568430757593,2025-09-30 16h01.23.710853 +0530,
190,0,190,[np.float64(-0.23333333333333334)],[np.float64(-0.4722222222222222)],[1],[0],[0],[1.3234888999722898],[None],190,0,190,0,260.6033885998186,,5,260.59899659990333,260.6033885998186,260.6033885998186,0.009430399863049388,261.92262730002403,[np.float64(-0.23333333333333334)],[np.float64(-0.4722222222222222)],[1],[0],[0],[1.3234888999722898],[None],5,001,2025-09-30_15h59.34.260,Visual Search,,2025.1.1,60.09568430757593,2025-09-30 16h01.23.710853 +0530,
191,0,191,[np.float64(0.05092592592592592)],[np.float64(-0.30277777777777776)],[1],[0],[0],[1.1344083999283612],[None],191,0,191,0,261.94768280000426,,10,261.9410908999853,261.94768280000426,261.94768280000426,0.018236499978229403,263.0756061999127,[np.float64(0.05092592592592592)],[np.float64(-0.30277777777777776)],[1],[0],[0],[1.1344083999283612],[None],5,001,2025-09-30_15h59.34.260,Visual Search,,2025.1.1,60.09568430757593,2025-09-30 16h01.23.710853 +0530,
192,0,192,[np.float64(-0.2935185185185185)],[np.float64(-0.20833333333333334)],[1],[0],[0],[1.0403428999707103],[None],192,0,192,0,263.08962660003453,,5,263.0844494998455,263.08962660003453,263.08962660003453,0.008641900029033422,264.1248782000039,[np.float64(-0.2935185185185185)],[np.float64(-0.20833333333333334)],[1],[0],[0],[1.0403428999707103],[None],5,001,2025-09-30_15h59.34.260,Visual Search,,2025.1.1,60.09568430757593,2025-09-30 16h01.23.710853 +0530,
193,0,193,[np.float64(-0.25925925925925924)],[np.float64(0.3425925925925926)],[1],[0],[0],[1.2167510001454502],['target'],193,0,193,0,264.1454509999603,,10,264.1392714998219,264.1454509999603,264.1454509999603,0.014244999969378114,265.35618649981916,[np.float64(-0.25925925925925924)],[np.float64(0.3425925925925926)],[1],[0],[0],[1.2167510001454502],['target'],5,001,2025-09-30_15h59.34.260,Visual Search,,2025.1.1,60.09568430757593,2025-09-30 16h01.23.710853 +0530,
194,0,194,[np.float64(-0.049074074074074076)],[np.float64(-0.27314814814814814)],[1],[0],[0],[1.1818297000136226],['target'],194,0,194,0,265.3798238998279,,10,265.37366589996964,265.3798238998279,265.3798238998279,0.01719529996626079,266.55560989980586,[np.float64(-0.049074074074074076)],[np.float64(-0.27314814814814814)],[1],[0],[0],[1.1818297000136226],['target'],5,001,2025-09-30_15h59.34.260,Visual Search,,2025.1.1,60.09568430757593,2025-09-30 16h01.23.710853 +0530,
195,0,195,[np.float64(-0.12314814814814815)],[np.float64(0.3638888888888889)],[1],[0],[0],[1.456609999993816],['target'],195,0,195,0,266.57038869988173,,5,266.5650801998563,266.57038869988173,266.57038869988173,0.009242499945685267,268.0217932998203,[np.float64(-0.12314814814814815)],[np.float64(0.3638888888888889)],[1],[0],[0],[1.456609999993816],['target'],5,001,2025-09-30_15h59.34.260,Visual Search,,2025.1.1,60.09568430757593,2025-09-30 16h01.23.710853 +0530,
196,0,196,[np.float64(0.10648148148148148)],[np.float64(0.26296296296296295)],[1],[0],[0],[1.259067599894479],['target'],196,0,196,0,268.0382515999954,,5,268.0338441999629,268.0382515999954,268.0382515999954,0.01185859995894134,269.2930115000345,[np.float64(0.10648148148148148)],[np.float64(0.26296296296296295)],[1],[0],[0],[1.259067599894479],['target'],5,001,2025-09-30_15h59.34.260,Visual Search,,2025.1.1,60.09568430757593,2025-09-30 16h01.23.710853 +0530,
197,0,197,[np.float64(0.38333333333333336)],[np.float64(-0.09259259259259259)],[1],[0],[0],[1.2135427000466734],['target'],197,0,197,0,269.31533829984255,,10,269.3082675000187,269.31533829984255,269.31533829984255,0.015081600053235888,270.52191190002486,[np.float64(0.38333333333333336)],[np.float64(-0.09259259259259259)],[1],[0],[0],[1.2135427000466734],['target'],5,001,2025-09-30_15h59.34.260,Visual Search,,2025.1.1,60.09568430757593,2025-09-30 16h01.23.710853 +0530,
198,0,198,[np.float64(0.18796296296296297)],[np.float64(0.26944444444444443)],[1],[0],[0],[0.9953906999435276],['target'],198,0,198,0,270.5370281999931,,5,270.5309997999575,270.5370281999931,270.5370281999931,0.008884700015187263,271.5264959000051,[np.float64(0.18796296296296297)],[np.float64(0.26944444444444443)],[1],[0],[0],[0.9953906999435276],['target'],5,001,2025-09-30_15h59.34.260,Visual Search,,2025.1.1,60.09568430757593,2025-09-30 16h01.23.710853 +0530,
199,0,199,[np.float64(0.10185185185185185)],[np.float64(0.2796296296296296)],[1],[0],[0],[0.9396623999346048],['target'],199,0,199,0,271.5420338998083,,5,271.5369644998573,271.5420338998083,271.5420338998083,0.01029270002618432,272.4767352999188,[np.float64(0.10185185185185185)],[np.float64(0.2796296296296296)],[1],[0],[0],[0.9396623999346048],['target'],5,001,2025-09-30_15h59.34.260,Visual Search,,2025.1.1,60.09568430757593,2025-09-30 16h01.23.710853 +0530,
